"","subID","critRT","block","Trial","Resp","RT","ACC","rewType","congruent","taskSwitch","group","condition"
"1",1,712,6,1,4,649,1,"Reward4","congruent",0,"YA","baseline"
"2",1,712,6,2,4,752,1,"Reward2","incongruent",1,"YA","baseline"
"3",1,712,6,3,4,790,1,"Reward1","congruent",1,"YA","baseline"
"4",1,712,6,4,3,624,1,"Reward1","incongruent",1,"YA","baseline"
"5",1,712,6,5,3,1439,1,"Reward4","congruent",1,"YA","baseline"
"6",1,712,6,6,3,1084,1,"Reward2","congruent",0,"YA","baseline"
"7",1,712,6,7,4,591,1,"Reward1","congruent",1,"YA","baseline"
"8",1,712,6,8,4,901,1,"Reward4","incongruent",1,"YA","baseline"
"9",1,712,6,9,4,662,1,"Reward1","incongruent",0,"YA","baseline"
"10",1,712,6,10,3,857,0,"Reward4","incongruent",1,"YA","baseline"
"11",1,712,6,11,4,1539,1,"Reward1","congruent",0,"YA","baseline"
"12",1,712,6,12,3,1542,1,"Reward2","congruent",1,"YA","baseline"
"13",1,712,6,13,4,1404,1,"Reward1","congruent",0,"YA","baseline"
"14",1,712,6,14,3,1361,1,"Reward1","congruent",0,"YA","baseline"
"15",1,712,6,15,4,1443,1,"Reward2","congruent",0,"YA","baseline"
"16",1,712,6,16,4,1161,1,"Reward2","incongruent",0,"YA","baseline"
"17",1,712,6,17,3,1019,1,"Reward4","incongruent",0,"YA","baseline"
"18",1,712,6,18,3,755,1,"Reward4","incongruent",1,"YA","baseline"
"19",1,712,6,19,3,1108,1,"Reward1","congruent",1,"YA","baseline"
"20",1,712,6,20,3,823,1,"Reward4","congruent",0,"YA","baseline"
"21",1,712,6,21,3,1346,1,"Reward1","congruent",0,"YA","baseline"
"22",1,712,6,22,4,1846,1,"Reward4","incongruent",0,"YA","baseline"
"23",1,712,6,23,4,767,1,"Reward2","congruent",1,"YA","baseline"
"24",1,712,6,24,3,600,1,"Reward4","incongruent",0,"YA","baseline"
"25",1,712,6,25,3,1012,1,"Reward1","congruent",0,"YA","baseline"
"26",1,712,6,26,4,692,1,"Reward4","incongruent",0,"YA","baseline"
"27",1,712,6,27,3,801,1,"Reward1","incongruent",1,"YA","baseline"
"28",1,712,6,28,4,712,1,"Reward4","congruent",0,"YA","baseline"
"29",1,712,6,29,3,801,1,"Reward2","incongruent",0,"YA","baseline"
"30",1,712,6,30,4,592,1,"Reward4","congruent",1,"YA","baseline"
"31",1,712,6,31,4,805,1,"Reward2","incongruent",0,"YA","baseline"
"32",1,712,6,32,3,719,1,"Reward2","incongruent",1,"YA","baseline"
"33",1,712,6,33,4,737,1,"Reward1","incongruent",1,"YA","baseline"
"34",1,712,6,34,4,802,1,"Reward4","incongruent",1,"YA","baseline"
"35",1,712,6,35,NA,0,0,"Reward4","congruent",1,"YA","baseline"
"36",1,712,6,36,3,1032,1,"Reward4","congruent",0,"YA","baseline"
"37",1,712,6,37,4,905,1,"Reward4","congruent",1,"YA","baseline"
"38",1,712,6,38,4,629,1,"Reward1","incongruent",1,"YA","baseline"
"39",1,712,6,39,3,1212,1,"Reward1","congruent",1,"YA","baseline"
"40",1,712,6,40,3,1293,1,"Reward2","congruent",0,"YA","baseline"
"41",1,712,6,41,4,1245,1,"Reward2","incongruent",1,"YA","baseline"
"42",1,712,6,42,3,808,1,"Reward2","incongruent",0,"YA","baseline"
"43",1,712,6,43,4,1320,1,"Reward1","congruent",1,"YA","baseline"
"44",1,712,6,44,4,1651,1,"Reward4","congruent",1,"YA","baseline"
"45",1,712,6,45,3,671,1,"Reward4","incongruent",1,"YA","baseline"
"46",1,712,6,46,4,1736,1,"Reward2","congruent",0,"YA","baseline"
"47",1,712,6,47,3,1315,1,"Reward1","incongruent",0,"YA","baseline"
"48",1,712,6,48,3,953,1,"Reward1","incongruent",1,"YA","baseline"
"49",1,712,6,49,4,659,1,"Reward4","congruent",0,"YA","baseline"
"50",1,712,6,50,4,954,1,"Reward2","incongruent",1,"YA","baseline"
"51",1,712,6,51,4,979,1,"Reward2","incongruent",0,"YA","baseline"
"52",1,712,6,52,3,902,1,"Reward4","congruent",1,"YA","baseline"
"53",1,712,6,53,4,1417,1,"Reward2","congruent",1,"YA","baseline"
"54",1,712,6,54,3,1021,1,"Reward4","incongruent",0,"YA","baseline"
"55",1,712,6,55,4,654,1,"Reward4","incongruent",1,"YA","baseline"
"56",1,712,6,56,3,577,1,"Reward1","incongruent",0,"YA","baseline"
"57",1,712,6,57,NA,0,0,"Reward2","incongruent",0,"YA","baseline"
"58",1,712,6,58,4,644,1,"Reward2","congruent",0,"YA","baseline"
"59",1,712,6,59,3,936,1,"Reward2","congruent",1,"YA","baseline"
"60",1,712,6,60,4,1128,1,"Reward1","incongruent",0,"YA","baseline"
"61",1,712,6,61,3,1754,1,"Reward2","incongruent",1,"YA","baseline"
"62",1,712,6,62,4,728,1,"Reward4","incongruent",0,"YA","baseline"
"63",1,712,6,63,3,756,1,"Reward4","incongruent",0,"YA","baseline"
"64",1,712,6,64,4,469,1,"Reward2","incongruent",0,"YA","baseline"
"65",1,712,6,65,3,1136,0,"Reward1","incongruent",1,"YA","baseline"
"66",1,712,6,66,3,1374,1,"Reward1","incongruent",0,"YA","baseline"
"67",1,712,6,67,NA,0,0,"Reward4","incongruent",0,"YA","baseline"
"68",1,712,6,68,3,804,1,"Reward2","congruent",1,"YA","baseline"
"69",1,712,6,69,3,574,1,"Reward4","congruent",0,"YA","baseline"
"70",1,712,6,70,4,710,1,"Reward1","incongruent",1,"YA","baseline"
"71",1,712,6,71,4,1171,0,"Reward1","congruent",1,"YA","baseline"
"72",1,712,6,72,4,984,1,"Reward2","congruent",0,"YA","baseline"
"73",1,712,6,73,3,1125,1,"Reward1","incongruent",0,"YA","baseline"
"74",1,712,6,74,3,640,1,"Reward2","congruent",0,"YA","baseline"
"75",1,712,6,75,3,574,1,"Reward2","incongruent",1,"YA","baseline"
"76",1,712,6,76,3,1581,1,"Reward2","congruent",1,"YA","baseline"
"77",1,712,6,77,4,782,1,"Reward1","incongruent",0,"YA","baseline"
"78",1,712,6,78,4,549,1,"Reward1","incongruent",0,"YA","baseline"
"79",1,712,6,79,3,1076,1,"Reward4","incongruent",1,"YA","baseline"
"80",1,712,6,80,4,553,1,"Reward2","congruent",1,"YA","baseline"
"81",1,712,6,81,3,604,1,"Reward2","congruent",0,"YA","baseline"
"82",1,712,6,82,4,667,1,"Reward2","incongruent",1,"YA","baseline"
"83",1,712,6,83,NA,0,0,"Reward1","congruent",0,"YA","baseline"
"84",1,712,6,84,3,921,1,"Reward1","congruent",1,"YA","baseline"
"85",1,712,6,85,4,694,1,"Reward2","congruent",1,"YA","baseline"
"86",1,712,6,86,3,1136,1,"Reward4","congruent",0,"YA","baseline"
"87",1,712,6,87,3,709,1,"Reward2","incongruent",0,"YA","baseline"
"88",1,712,6,88,4,563,1,"Reward1","congruent",1,"YA","baseline"
"89",1,712,6,89,3,696,1,"Reward1","incongruent",1,"YA","baseline"
"90",1,712,6,90,3,1654,1,"Reward4","incongruent",1,"YA","baseline"
"91",1,712,6,91,4,581,1,"Reward4","congruent",1,"YA","baseline"
"92",1,712,6,92,3,1072,1,"Reward2","incongruent",1,"YA","baseline"
"93",1,712,6,93,3,822,1,"Reward1","congruent",0,"YA","baseline"
"94",1,712,6,94,4,847,1,"Reward4","congruent",0,"YA","baseline"
"95",1,712,6,95,4,564,1,"Reward1","congruent",0,"YA","baseline"
"96",1,712,6,96,3,848,1,"Reward4","congruent",1,"YA","baseline"
"97",2,617,6,1,4,691,0,"Reward4","congruent",0,"YA","baseline"
"98",2,617,6,2,3,463,1,"Reward2","incongruent",1,"YA","baseline"
"99",2,617,6,3,4,837,0,"Reward1","congruent",1,"YA","baseline"
"100",2,617,6,4,NA,0,0,"Reward1","incongruent",1,"YA","baseline"
"101",2,617,6,5,3,453,0,"Reward4","congruent",1,"YA","baseline"
"102",2,617,6,6,3,422,0,"Reward2","congruent",0,"YA","baseline"
"103",2,617,6,7,3,546,1,"Reward1","congruent",1,"YA","baseline"
"104",2,617,6,8,4,1016,0,"Reward4","incongruent",1,"YA","baseline"
"105",2,617,6,9,4,612,0,"Reward1","incongruent",0,"YA","baseline"
"106",2,617,6,10,3,422,1,"Reward4","incongruent",1,"YA","baseline"
"107",2,617,6,11,3,556,1,"Reward1","congruent",0,"YA","baseline"
"108",2,617,6,12,3,457,0,"Reward2","congruent",1,"YA","baseline"
"109",2,617,6,13,4,510,0,"Reward1","congruent",0,"YA","baseline"
"110",2,617,6,14,3,425,0,"Reward1","congruent",0,"YA","baseline"
"111",2,617,6,15,4,394,0,"Reward2","congruent",0,"YA","baseline"
"112",2,617,6,16,4,551,0,"Reward2","incongruent",0,"YA","baseline"
"113",2,617,6,17,3,419,0,"Reward4","incongruent",0,"YA","baseline"
"114",2,617,6,18,4,441,1,"Reward4","incongruent",1,"YA","baseline"
"115",2,617,6,19,3,931,0,"Reward1","congruent",1,"YA","baseline"
"116",2,617,6,20,3,918,0,"Reward4","congruent",0,"YA","baseline"
"117",2,617,6,21,3,528,0,"Reward1","congruent",0,"YA","baseline"
"118",2,617,6,22,4,392,0,"Reward4","incongruent",0,"YA","baseline"
"119",2,617,6,23,4,587,0,"Reward2","congruent",1,"YA","baseline"
"120",2,617,6,24,4,539,1,"Reward4","incongruent",0,"YA","baseline"
"121",2,617,6,25,4,1080,1,"Reward1","congruent",0,"YA","baseline"
"122",2,617,6,26,3,424,1,"Reward4","incongruent",0,"YA","baseline"
"123",2,617,6,27,3,1102,0,"Reward1","incongruent",1,"YA","baseline"
"124",2,617,6,28,4,568,0,"Reward4","congruent",0,"YA","baseline"
"125",2,617,6,29,3,437,0,"Reward2","incongruent",0,"YA","baseline"
"126",2,617,6,30,3,720,1,"Reward4","congruent",1,"YA","baseline"
"127",2,617,6,31,3,596,1,"Reward2","incongruent",0,"YA","baseline"
"128",2,617,6,32,3,397,0,"Reward2","incongruent",1,"YA","baseline"
"129",2,617,6,33,3,558,1,"Reward1","incongruent",1,"YA","baseline"
"130",2,617,6,34,4,878,0,"Reward4","incongruent",1,"YA","baseline"
"131",2,617,6,35,4,435,1,"Reward4","congruent",1,"YA","baseline"
"132",2,617,6,36,4,737,1,"Reward4","congruent",0,"YA","baseline"
"133",2,617,6,37,4,1125,0,"Reward4","congruent",1,"YA","baseline"
"134",2,617,6,38,3,1129,1,"Reward1","incongruent",1,"YA","baseline"
"135",2,617,6,39,3,1092,0,"Reward1","congruent",1,"YA","baseline"
"136",2,617,6,40,3,1009,0,"Reward2","congruent",0,"YA","baseline"
"137",2,617,6,41,3,695,1,"Reward2","incongruent",1,"YA","baseline"
"138",2,617,6,42,4,1138,1,"Reward2","incongruent",0,"YA","baseline"
"139",2,617,6,43,4,1535,0,"Reward1","congruent",1,"YA","baseline"
"140",2,617,6,44,3,708,1,"Reward4","congruent",1,"YA","baseline"
"141",2,617,6,45,3,377,0,"Reward4","incongruent",1,"YA","baseline"
"142",2,617,6,46,4,640,0,"Reward2","congruent",0,"YA","baseline"
"143",2,617,6,47,3,494,0,"Reward1","incongruent",0,"YA","baseline"
"144",2,617,6,48,4,493,1,"Reward1","incongruent",1,"YA","baseline"
"145",2,617,6,49,3,737,1,"Reward4","congruent",0,"YA","baseline"
"146",2,617,6,50,3,1234,1,"Reward2","incongruent",1,"YA","baseline"
"147",2,617,6,51,4,473,0,"Reward2","incongruent",0,"YA","baseline"
"148",2,617,6,52,4,493,1,"Reward4","congruent",1,"YA","baseline"
"149",2,617,6,53,3,1645,1,"Reward2","congruent",1,"YA","baseline"
"150",2,617,6,54,3,757,0,"Reward4","incongruent",0,"YA","baseline"
"151",2,617,6,55,3,514,1,"Reward4","incongruent",1,"YA","baseline"
"152",2,617,6,56,4,436,1,"Reward1","incongruent",0,"YA","baseline"
"153",2,617,6,57,4,694,1,"Reward2","incongruent",0,"YA","baseline"
"154",2,617,6,58,3,500,1,"Reward2","congruent",0,"YA","baseline"
"155",2,617,6,59,3,1208,0,"Reward2","congruent",1,"YA","baseline"
"156",2,617,6,60,4,469,0,"Reward1","incongruent",0,"YA","baseline"
"157",2,617,6,61,4,552,1,"Reward2","incongruent",1,"YA","baseline"
"158",2,617,6,62,3,1362,1,"Reward4","incongruent",0,"YA","baseline"
"159",2,617,6,63,4,906,1,"Reward4","incongruent",0,"YA","baseline"
"160",2,617,6,64,3,456,1,"Reward2","incongruent",0,"YA","baseline"
"161",2,617,6,65,4,1341,0,"Reward1","incongruent",1,"YA","baseline"
"162",2,617,6,66,3,964,0,"Reward1","incongruent",0,"YA","baseline"
"163",2,617,6,67,4,653,0,"Reward4","incongruent",0,"YA","baseline"
"164",2,617,6,68,4,530,1,"Reward2","congruent",1,"YA","baseline"
"165",2,617,6,69,3,486,0,"Reward4","congruent",0,"YA","baseline"
"166",2,617,6,70,4,433,0,"Reward1","incongruent",1,"YA","baseline"
"167",2,617,6,71,3,1046,0,"Reward1","congruent",1,"YA","baseline"
"168",2,617,6,72,3,830,1,"Reward2","congruent",0,"YA","baseline"
"169",2,617,6,73,4,617,1,"Reward1","incongruent",0,"YA","baseline"
"170",2,617,6,74,4,462,1,"Reward2","congruent",0,"YA","baseline"
"171",2,617,6,75,3,720,0,"Reward2","incongruent",1,"YA","baseline"
"172",2,617,6,76,4,1364,1,"Reward2","congruent",1,"YA","baseline"
"173",2,617,6,77,3,613,1,"Reward1","incongruent",0,"YA","baseline"
"174",2,617,6,78,3,565,1,"Reward1","incongruent",0,"YA","baseline"
"175",2,617,6,79,3,497,0,"Reward4","incongruent",1,"YA","baseline"
"176",2,617,6,80,3,582,1,"Reward2","congruent",1,"YA","baseline"
"177",2,617,6,81,4,498,1,"Reward2","congruent",0,"YA","baseline"
"178",2,617,6,82,4,551,0,"Reward2","incongruent",1,"YA","baseline"
"179",2,617,6,83,3,1942,1,"Reward1","congruent",0,"YA","baseline"
"180",2,617,6,84,4,437,1,"Reward1","congruent",1,"YA","baseline"
"181",2,617,6,85,4,405,0,"Reward2","congruent",1,"YA","baseline"
"182",2,617,6,86,3,1160,0,"Reward4","congruent",0,"YA","baseline"
"183",2,617,6,87,3,589,0,"Reward2","incongruent",0,"YA","baseline"
"184",2,617,6,88,3,585,1,"Reward1","congruent",1,"YA","baseline"
"185",2,617,6,89,3,498,0,"Reward1","incongruent",1,"YA","baseline"
"186",2,617,6,90,4,1309,1,"Reward4","incongruent",1,"YA","baseline"
"187",2,617,6,91,3,769,1,"Reward4","congruent",1,"YA","baseline"
"188",2,617,6,92,4,506,1,"Reward2","incongruent",1,"YA","baseline"
"189",2,617,6,93,4,610,1,"Reward1","congruent",0,"YA","baseline"
"190",2,617,6,94,3,452,1,"Reward4","congruent",0,"YA","baseline"
"191",2,617,6,95,3,790,1,"Reward1","congruent",0,"YA","baseline"
"192",2,617,6,96,3,648,0,"Reward4","congruent",1,"YA","baseline"
"193",3,1046,6,1,3,1790,1,"Reward4","incongruent",0,"YA","baseline"
"194",3,1046,6,2,4,821,1,"Reward2","congruent",1,"YA","baseline"
"195",3,1046,6,3,3,587,1,"Reward1","incongruent",1,"YA","baseline"
"196",3,1046,6,4,3,544,1,"Reward1","congruent",1,"YA","baseline"
"197",3,1046,6,5,4,787,1,"Reward4","incongruent",1,"YA","baseline"
"198",3,1046,6,6,NA,0,0,"Reward2","incongruent",0,"YA","baseline"
"199",3,1046,6,7,4,851,1,"Reward1","incongruent",1,"YA","baseline"
"200",3,1046,6,8,3,814,1,"Reward4","congruent",1,"YA","baseline"
"201",3,1046,6,9,3,719,1,"Reward1","congruent",0,"YA","baseline"
"202",3,1046,6,10,4,1232,1,"Reward4","congruent",1,"YA","baseline"
"203",3,1046,6,11,4,1701,1,"Reward1","incongruent",0,"YA","baseline"
"204",3,1046,6,12,4,1601,1,"Reward2","incongruent",1,"YA","baseline"
"205",3,1046,6,13,3,846,1,"Reward1","incongruent",0,"YA","baseline"
"206",3,1046,6,14,4,1188,1,"Reward1","incongruent",0,"YA","baseline"
"207",3,1046,6,15,3,1266,1,"Reward2","incongruent",0,"YA","baseline"
"208",3,1046,6,16,3,1595,1,"Reward2","congruent",0,"YA","baseline"
"209",3,1046,6,17,4,1962,1,"Reward4","congruent",0,"YA","baseline"
"210",3,1046,6,18,3,1592,1,"Reward4","congruent",1,"YA","baseline"
"211",3,1046,6,19,4,1191,1,"Reward1","incongruent",1,"YA","baseline"
"212",3,1046,6,20,4,1696,1,"Reward4","incongruent",0,"YA","baseline"
"213",3,1046,6,21,NA,0,0,"Reward1","incongruent",0,"YA","baseline"
"214",3,1046,6,22,3,1946,1,"Reward4","congruent",0,"YA","baseline"
"215",3,1046,6,23,4,1028,1,"Reward2","incongruent",1,"YA","baseline"
"216",3,1046,6,24,3,626,1,"Reward4","congruent",0,"YA","baseline"
"217",3,1046,6,25,3,905,1,"Reward1","incongruent",0,"YA","baseline"
"218",3,1046,6,26,3,842,0,"Reward4","congruent",0,"YA","baseline"
"219",3,1046,6,27,4,1783,1,"Reward1","congruent",1,"YA","baseline"
"220",3,1046,6,28,NA,0,0,"Reward4","incongruent",0,"YA","baseline"
"221",3,1046,6,29,4,1004,1,"Reward2","congruent",0,"YA","baseline"
"222",3,1046,6,30,4,1799,1,"Reward4","incongruent",1,"YA","baseline"
"223",3,1046,6,31,4,1389,1,"Reward2","congruent",0,"YA","baseline"
"224",3,1046,6,32,4,1389,1,"Reward2","congruent",1,"YA","baseline"
"225",3,1046,6,33,4,1461,1,"Reward1","congruent",1,"YA","baseline"
"226",3,1046,6,34,4,1390,0,"Reward4","congruent",1,"YA","baseline"
"227",3,1046,6,35,3,1626,1,"Reward4","incongruent",1,"YA","baseline"
"228",3,1046,6,36,3,1617,1,"Reward4","incongruent",0,"YA","baseline"
"229",3,1046,6,37,3,1162,1,"Reward4","incongruent",1,"YA","baseline"
"230",3,1046,6,38,4,1236,1,"Reward1","congruent",1,"YA","baseline"
"231",3,1046,6,39,4,1323,1,"Reward1","incongruent",1,"YA","baseline"
"232",3,1046,6,40,4,1693,1,"Reward2","incongruent",0,"YA","baseline"
"233",3,1046,6,41,4,1398,1,"Reward2","congruent",1,"YA","baseline"
"234",3,1046,6,42,3,1815,1,"Reward2","congruent",0,"YA","baseline"
"235",3,1046,6,43,3,976,1,"Reward1","incongruent",1,"YA","baseline"
"236",3,1046,6,44,3,1390,0,"Reward4","incongruent",1,"YA","baseline"
"237",3,1046,6,45,4,1320,1,"Reward4","congruent",1,"YA","baseline"
"238",3,1046,6,46,3,922,1,"Reward2","incongruent",0,"YA","baseline"
"239",3,1046,6,47,4,785,1,"Reward1","congruent",0,"YA","baseline"
"240",3,1046,6,48,3,1010,1,"Reward1","congruent",1,"YA","baseline"
"241",3,1046,6,49,4,892,1,"Reward4","incongruent",0,"YA","baseline"
"242",3,1046,6,50,NA,0,0,"Reward2","congruent",1,"YA","baseline"
"243",3,1046,6,51,3,1462,1,"Reward2","congruent",0,"YA","baseline"
"244",3,1046,6,52,4,1802,0,"Reward4","incongruent",1,"YA","baseline"
"245",3,1046,6,53,3,1561,1,"Reward2","incongruent",1,"YA","baseline"
"246",3,1046,6,54,4,592,1,"Reward4","congruent",0,"YA","baseline"
"247",3,1046,6,55,4,1046,1,"Reward4","congruent",1,"YA","baseline"
"248",3,1046,6,56,3,873,1,"Reward1","congruent",0,"YA","baseline"
"249",3,1046,6,57,3,1665,1,"Reward2","congruent",0,"YA","baseline"
"250",3,1046,6,58,3,1421,0,"Reward2","incongruent",0,"YA","baseline"
"251",3,1046,6,59,NA,0,0,"Reward2","incongruent",1,"YA","baseline"
"252",3,1046,6,60,3,1083,1,"Reward1","congruent",0,"YA","baseline"
"253",3,1046,6,61,3,1641,1,"Reward2","congruent",1,"YA","baseline"
"254",3,1046,6,62,4,1805,1,"Reward4","congruent",0,"YA","baseline"
"255",3,1046,6,63,3,1122,1,"Reward4","congruent",0,"YA","baseline"
"256",3,1046,6,64,4,1361,1,"Reward2","congruent",0,"YA","baseline"
"257",3,1046,6,65,3,606,1,"Reward1","congruent",1,"YA","baseline"
"258",3,1046,6,66,3,910,0,"Reward1","congruent",0,"YA","baseline"
"259",3,1046,6,67,NA,0,0,"Reward4","congruent",0,"YA","baseline"
"260",3,1046,6,68,3,1914,1,"Reward2","incongruent",1,"YA","baseline"
"261",3,1046,6,69,3,867,1,"Reward4","incongruent",0,"YA","baseline"
"262",3,1046,6,70,3,1789,1,"Reward1","congruent",1,"YA","baseline"
"263",3,1046,6,71,NA,0,0,"Reward1","incongruent",1,"YA","baseline"
"264",3,1046,6,72,4,1107,1,"Reward2","incongruent",0,"YA","baseline"
"265",3,1046,6,73,3,1935,1,"Reward1","congruent",0,"YA","baseline"
"266",3,1046,6,74,3,814,1,"Reward2","incongruent",0,"YA","baseline"
"267",3,1046,6,75,4,942,1,"Reward2","congruent",1,"YA","baseline"
"268",3,1046,6,76,3,951,1,"Reward2","incongruent",1,"YA","baseline"
"269",3,1046,6,77,4,975,1,"Reward1","congruent",0,"YA","baseline"
"270",3,1046,6,78,3,1495,0,"Reward1","congruent",0,"YA","baseline"
"271",3,1046,6,79,NA,0,0,"Reward4","congruent",1,"YA","baseline"
"272",3,1046,6,80,NA,0,0,"Reward2","incongruent",1,"YA","baseline"
"273",3,1046,6,81,3,1196,1,"Reward2","incongruent",0,"YA","baseline"
"274",3,1046,6,82,3,1536,1,"Reward2","congruent",1,"YA","baseline"
"275",3,1046,6,83,3,1145,1,"Reward1","incongruent",0,"YA","baseline"
"276",3,1046,6,84,3,710,1,"Reward1","incongruent",1,"YA","baseline"
"277",3,1046,6,85,4,1305,0,"Reward2","incongruent",1,"YA","baseline"
"278",3,1046,6,86,3,1367,0,"Reward4","incongruent",0,"YA","baseline"
"279",3,1046,6,87,4,790,1,"Reward2","congruent",0,"YA","baseline"
"280",3,1046,6,88,4,1412,1,"Reward1","incongruent",1,"YA","baseline"
"281",3,1046,6,89,4,1352,1,"Reward1","congruent",1,"YA","baseline"
"282",3,1046,6,90,3,1174,1,"Reward4","congruent",1,"YA","baseline"
"283",3,1046,6,91,3,1156,1,"Reward4","incongruent",1,"YA","baseline"
"284",3,1046,6,92,NA,0,0,"Reward2","congruent",1,"YA","baseline"
"285",3,1046,6,93,3,837,1,"Reward1","incongruent",0,"YA","baseline"
"286",3,1046,6,94,4,1205,1,"Reward4","incongruent",0,"YA","baseline"
"287",3,1046,6,95,3,573,0,"Reward1","incongruent",0,"YA","baseline"
"288",3,1046,6,96,4,1164,1,"Reward4","incongruent",1,"YA","baseline"
"289",4,645,6,1,NA,0,0,"Reward4","incongruent",0,"YA","baseline"
"290",4,645,6,2,3,635,1,"Reward2","congruent",1,"YA","baseline"
"291",4,645,6,3,4,572,1,"Reward1","incongruent",1,"YA","baseline"
"292",4,645,6,4,4,815,1,"Reward1","congruent",1,"YA","baseline"
"293",4,645,6,5,3,552,1,"Reward4","incongruent",1,"YA","baseline"
"294",4,645,6,6,3,800,1,"Reward2","incongruent",0,"YA","baseline"
"295",4,645,6,7,3,598,1,"Reward1","incongruent",1,"YA","baseline"
"296",4,645,6,8,4,766,1,"Reward4","congruent",1,"YA","baseline"
"297",4,645,6,9,4,738,1,"Reward1","congruent",0,"YA","baseline"
"298",4,645,6,10,4,1031,0,"Reward4","congruent",1,"YA","baseline"
"299",4,645,6,11,3,744,1,"Reward1","incongruent",0,"YA","baseline"
"300",4,645,6,12,3,839,1,"Reward2","incongruent",1,"YA","baseline"
"301",4,645,6,13,4,645,1,"Reward1","incongruent",0,"YA","baseline"
"302",4,645,6,14,3,543,1,"Reward1","incongruent",0,"YA","baseline"
"303",4,645,6,15,4,555,1,"Reward2","incongruent",0,"YA","baseline"
"304",4,645,6,16,4,592,1,"Reward2","congruent",0,"YA","baseline"
"305",4,645,6,17,3,1279,1,"Reward4","congruent",0,"YA","baseline"
"306",4,645,6,18,4,727,1,"Reward4","congruent",1,"YA","baseline"
"307",4,645,6,19,3,777,1,"Reward1","incongruent",1,"YA","baseline"
"308",4,645,6,20,3,665,1,"Reward4","incongruent",0,"YA","baseline"
"309",4,645,6,21,3,613,1,"Reward1","incongruent",0,"YA","baseline"
"310",4,645,6,22,4,1057,1,"Reward4","congruent",0,"YA","baseline"
"311",4,645,6,23,3,645,1,"Reward2","incongruent",1,"YA","baseline"
"312",4,645,6,24,3,1993,0,"Reward4","congruent",0,"YA","baseline"
"313",4,645,6,25,NA,0,0,"Reward1","incongruent",0,"YA","baseline"
"314",4,645,6,26,3,845,1,"Reward4","congruent",0,"YA","baseline"
"315",4,645,6,27,3,1078,1,"Reward1","congruent",1,"YA","baseline"
"316",4,645,6,28,4,1447,1,"Reward4","incongruent",0,"YA","baseline"
"317",4,645,6,29,3,1267,1,"Reward2","congruent",0,"YA","baseline"
"318",4,645,6,30,3,966,1,"Reward4","incongruent",1,"YA","baseline"
"319",4,645,6,31,3,638,1,"Reward2","congruent",0,"YA","baseline"
"320",4,645,6,32,3,809,1,"Reward2","congruent",1,"YA","baseline"
"321",4,645,6,33,3,895,1,"Reward1","congruent",1,"YA","baseline"
"322",4,645,6,34,4,686,1,"Reward4","congruent",1,"YA","baseline"
"323",4,645,6,35,4,1688,1,"Reward4","incongruent",1,"YA","baseline"
"324",4,645,6,36,4,633,1,"Reward4","incongruent",0,"YA","baseline"
"325",4,645,6,37,4,1429,1,"Reward4","incongruent",1,"YA","baseline"
"326",4,645,6,38,3,671,1,"Reward1","congruent",1,"YA","baseline"
"327",4,645,6,39,3,1453,1,"Reward1","incongruent",1,"YA","baseline"
"328",4,645,6,40,3,580,1,"Reward2","incongruent",0,"YA","baseline"
"329",4,645,6,41,3,527,1,"Reward2","congruent",1,"YA","baseline"
"330",4,645,6,42,4,1473,1,"Reward2","congruent",0,"YA","baseline"
"331",4,645,6,43,4,1169,1,"Reward1","incongruent",1,"YA","baseline"
"332",4,645,6,44,3,917,1,"Reward4","incongruent",1,"YA","baseline"
"333",4,645,6,45,3,540,1,"Reward4","congruent",1,"YA","baseline"
"334",4,645,6,46,4,682,1,"Reward2","incongruent",0,"YA","baseline"
"335",4,645,6,47,3,544,1,"Reward1","congruent",0,"YA","baseline"
"336",4,645,6,48,4,730,1,"Reward1","congruent",1,"YA","baseline"
"337",4,645,6,49,3,1385,1,"Reward4","incongruent",0,"YA","baseline"
"338",4,645,6,50,3,995,0,"Reward2","congruent",1,"YA","baseline"
"339",4,645,6,51,4,817,1,"Reward2","congruent",0,"YA","baseline"
"340",4,645,6,52,4,988,1,"Reward4","incongruent",1,"YA","baseline"
"341",4,645,6,53,4,697,1,"Reward2","incongruent",1,"YA","baseline"
"342",4,645,6,54,3,669,1,"Reward4","congruent",0,"YA","baseline"
"343",4,645,6,55,3,852,1,"Reward4","congruent",1,"YA","baseline"
"344",4,645,6,56,4,760,1,"Reward1","congruent",0,"YA","baseline"
"345",4,645,6,57,4,896,1,"Reward2","congruent",0,"YA","baseline"
"346",4,645,6,58,3,1000,1,"Reward2","incongruent",0,"YA","baseline"
"347",4,645,6,59,3,1053,1,"Reward2","incongruent",1,"YA","baseline"
"348",4,645,6,60,4,718,1,"Reward1","congruent",0,"YA","baseline"
"349",4,645,6,61,4,733,1,"Reward2","congruent",1,"YA","baseline"
"350",4,645,6,62,3,611,1,"Reward4","congruent",0,"YA","baseline"
"351",4,645,6,63,4,445,1,"Reward4","congruent",0,"YA","baseline"
"352",4,645,6,64,3,635,1,"Reward2","congruent",0,"YA","baseline"
"353",4,645,6,65,4,1121,1,"Reward1","congruent",1,"YA","baseline"
"354",4,645,6,66,3,659,1,"Reward1","congruent",0,"YA","baseline"
"355",4,645,6,67,4,1227,1,"Reward4","congruent",0,"YA","baseline"
"356",4,645,6,68,4,617,1,"Reward2","incongruent",1,"YA","baseline"
"357",4,645,6,69,4,501,1,"Reward4","incongruent",0,"YA","baseline"
"358",4,645,6,70,4,675,1,"Reward1","congruent",1,"YA","baseline"
"359",4,645,6,71,4,674,1,"Reward1","incongruent",1,"YA","baseline"
"360",4,645,6,72,NA,0,0,"Reward2","incongruent",0,"YA","baseline"
"361",4,645,6,73,4,465,1,"Reward1","congruent",0,"YA","baseline"
"362",4,645,6,74,4,479,1,"Reward2","incongruent",0,"YA","baseline"
"363",4,645,6,75,3,1183,1,"Reward2","congruent",1,"YA","baseline"
"364",4,645,6,76,4,909,1,"Reward2","incongruent",1,"YA","baseline"
"365",4,645,6,77,3,599,1,"Reward1","congruent",0,"YA","baseline"
"366",4,645,6,78,3,740,1,"Reward1","congruent",0,"YA","baseline"
"367",4,645,6,79,3,524,1,"Reward4","congruent",1,"YA","baseline"
"368",4,645,6,80,3,822,1,"Reward2","incongruent",1,"YA","baseline"
"369",4,645,6,81,4,631,1,"Reward2","incongruent",0,"YA","baseline"
"370",4,645,6,82,3,836,0,"Reward2","congruent",1,"YA","baseline"
"371",4,645,6,83,4,954,1,"Reward1","incongruent",0,"YA","baseline"
"372",4,645,6,84,4,542,1,"Reward1","incongruent",1,"YA","baseline"
"373",4,645,6,85,4,671,1,"Reward2","incongruent",1,"YA","baseline"
"374",4,645,6,86,3,704,1,"Reward4","incongruent",0,"YA","baseline"
"375",4,645,6,87,3,745,1,"Reward2","congruent",0,"YA","baseline"
"376",4,645,6,88,3,928,1,"Reward1","incongruent",1,"YA","baseline"
"377",4,645,6,89,3,575,1,"Reward1","congruent",1,"YA","baseline"
"378",4,645,6,90,4,808,1,"Reward4","congruent",1,"YA","baseline"
"379",4,645,6,91,4,732,1,"Reward4","incongruent",1,"YA","baseline"
"380",4,645,6,92,4,651,1,"Reward2","congruent",1,"YA","baseline"
"381",4,645,6,93,4,1011,1,"Reward1","incongruent",0,"YA","baseline"
"382",4,645,6,94,3,696,1,"Reward4","incongruent",0,"YA","baseline"
"383",4,645,6,95,3,611,1,"Reward1","incongruent",0,"YA","baseline"
"384",4,645,6,96,3,719,1,"Reward4","incongruent",1,"YA","baseline"
"385",5,772,6,1,3,834,0,"Reward4","congruent",0,"YA","baseline"
"386",5,772,6,2,4,696,1,"Reward2","incongruent",1,"YA","baseline"
"387",5,772,6,3,4,1204,1,"Reward1","congruent",1,"YA","baseline"
"388",5,772,6,4,3,1288,1,"Reward1","incongruent",1,"YA","baseline"
"389",5,772,6,5,3,1059,1,"Reward4","congruent",1,"YA","baseline"
"390",5,772,6,6,3,918,1,"Reward2","congruent",0,"YA","baseline"
"391",5,772,6,7,4,930,1,"Reward1","congruent",1,"YA","baseline"
"392",5,772,6,8,3,1340,0,"Reward4","incongruent",1,"YA","baseline"
"393",5,772,6,9,4,1128,1,"Reward1","incongruent",0,"YA","baseline"
"394",5,772,6,10,4,892,1,"Reward4","incongruent",1,"YA","baseline"
"395",5,772,6,11,4,779,1,"Reward1","congruent",0,"YA","baseline"
"396",5,772,6,12,3,1276,1,"Reward2","congruent",1,"YA","baseline"
"397",5,772,6,13,4,1421,1,"Reward1","congruent",0,"YA","baseline"
"398",5,772,6,14,3,414,1,"Reward1","congruent",0,"YA","baseline"
"399",5,772,6,15,4,654,1,"Reward2","congruent",0,"YA","baseline"
"400",5,772,6,16,4,1326,1,"Reward2","incongruent",0,"YA","baseline"
"401",5,772,6,17,3,784,1,"Reward4","incongruent",0,"YA","baseline"
"402",5,772,6,18,3,407,1,"Reward4","incongruent",1,"YA","baseline"
"403",5,772,6,19,3,763,1,"Reward1","congruent",1,"YA","baseline"
"404",5,772,6,20,3,469,1,"Reward4","congruent",0,"YA","baseline"
"405",5,772,6,21,3,886,1,"Reward1","congruent",0,"YA","baseline"
"406",5,772,6,22,4,638,1,"Reward4","incongruent",0,"YA","baseline"
"407",5,772,6,23,4,877,1,"Reward2","congruent",1,"YA","baseline"
"408",5,772,6,24,3,641,1,"Reward4","incongruent",0,"YA","baseline"
"409",5,772,6,25,3,1197,1,"Reward1","congruent",0,"YA","baseline"
"410",5,772,6,26,4,1418,1,"Reward4","incongruent",0,"YA","baseline"
"411",5,772,6,27,3,941,1,"Reward1","incongruent",1,"YA","baseline"
"412",5,772,6,28,4,772,1,"Reward4","congruent",0,"YA","baseline"
"413",5,772,6,29,3,1287,1,"Reward2","incongruent",0,"YA","baseline"
"414",5,772,6,30,NA,0,0,"Reward4","congruent",1,"YA","baseline"
"415",5,772,6,31,4,1247,1,"Reward2","incongruent",0,"YA","baseline"
"416",5,772,6,32,3,806,1,"Reward2","incongruent",1,"YA","baseline"
"417",5,772,6,33,4,626,1,"Reward1","incongruent",1,"YA","baseline"
"418",5,772,6,34,4,1339,1,"Reward4","incongruent",1,"YA","baseline"
"419",5,772,6,35,3,803,1,"Reward4","congruent",1,"YA","baseline"
"420",5,772,6,36,3,796,1,"Reward4","congruent",0,"YA","baseline"
"421",5,772,6,37,4,1574,1,"Reward4","congruent",1,"YA","baseline"
"422",5,772,6,38,4,1626,1,"Reward1","incongruent",1,"YA","baseline"
"423",5,772,6,39,3,931,1,"Reward1","congruent",1,"YA","baseline"
"424",5,772,6,40,NA,0,0,"Reward2","congruent",0,"YA","baseline"
"425",5,772,6,41,4,1056,1,"Reward2","incongruent",1,"YA","baseline"
"426",5,772,6,42,3,777,1,"Reward2","incongruent",0,"YA","baseline"
"427",5,772,6,43,4,603,1,"Reward1","congruent",1,"YA","baseline"
"428",5,772,6,44,4,803,1,"Reward4","congruent",1,"YA","baseline"
"429",5,772,6,45,3,959,1,"Reward4","incongruent",1,"YA","baseline"
"430",5,772,6,46,4,813,1,"Reward2","congruent",0,"YA","baseline"
"431",5,772,6,47,4,966,0,"Reward1","incongruent",0,"YA","baseline"
"432",5,772,6,48,3,740,1,"Reward1","incongruent",1,"YA","baseline"
"433",5,772,6,49,4,682,1,"Reward4","congruent",0,"YA","baseline"
"434",5,772,6,50,4,1051,1,"Reward2","incongruent",1,"YA","baseline"
"435",5,772,6,51,4,1117,1,"Reward2","incongruent",0,"YA","baseline"
"436",5,772,6,52,3,694,1,"Reward4","congruent",1,"YA","baseline"
"437",5,772,6,53,4,851,1,"Reward2","congruent",1,"YA","baseline"
"438",5,772,6,54,3,1189,1,"Reward4","incongruent",0,"YA","baseline"
"439",5,772,6,55,4,1088,1,"Reward4","incongruent",1,"YA","baseline"
"440",5,772,6,56,3,1569,1,"Reward1","incongruent",0,"YA","baseline"
"441",5,772,6,57,3,1739,1,"Reward2","incongruent",0,"YA","baseline"
"442",5,772,6,58,4,468,1,"Reward2","congruent",0,"YA","baseline"
"443",5,772,6,59,4,1102,0,"Reward2","congruent",1,"YA","baseline"
"444",5,772,6,60,4,887,1,"Reward1","incongruent",0,"YA","baseline"
"445",5,772,6,61,3,1406,1,"Reward2","incongruent",1,"YA","baseline"
"446",5,772,6,62,4,575,1,"Reward4","incongruent",0,"YA","baseline"
"447",5,772,6,63,3,833,1,"Reward4","incongruent",0,"YA","baseline"
"448",5,772,6,64,4,670,1,"Reward2","incongruent",0,"YA","baseline"
"449",5,772,6,65,4,977,1,"Reward1","incongruent",1,"YA","baseline"
"450",5,772,6,66,3,1046,1,"Reward1","incongruent",0,"YA","baseline"
"451",5,772,6,67,4,1200,1,"Reward4","incongruent",0,"YA","baseline"
"452",5,772,6,68,3,1139,1,"Reward2","congruent",1,"YA","baseline"
"453",5,772,6,69,3,998,1,"Reward4","congruent",0,"YA","baseline"
"454",5,772,6,70,4,1184,1,"Reward1","incongruent",1,"YA","baseline"
"455",5,772,6,71,3,818,1,"Reward1","congruent",1,"YA","baseline"
"456",5,772,6,72,4,975,1,"Reward2","congruent",0,"YA","baseline"
"457",5,772,6,73,3,688,1,"Reward1","incongruent",0,"YA","baseline"
"458",5,772,6,74,3,1428,1,"Reward2","congruent",0,"YA","baseline"
"459",5,772,6,75,3,1411,1,"Reward2","incongruent",1,"YA","baseline"
"460",5,772,6,76,3,560,1,"Reward2","congruent",1,"YA","baseline"
"461",5,772,6,77,4,408,1,"Reward1","incongruent",0,"YA","baseline"
"462",5,772,6,78,4,910,1,"Reward1","incongruent",0,"YA","baseline"
"463",5,772,6,79,3,1003,1,"Reward4","incongruent",1,"YA","baseline"
"464",5,772,6,80,4,413,1,"Reward2","congruent",1,"YA","baseline"
"465",5,772,6,81,3,426,1,"Reward2","congruent",0,"YA","baseline"
"466",5,772,6,82,4,1001,1,"Reward2","incongruent",1,"YA","baseline"
"467",5,772,6,83,4,466,1,"Reward1","congruent",0,"YA","baseline"
"468",5,772,6,84,3,548,1,"Reward1","congruent",1,"YA","baseline"
"469",5,772,6,85,4,690,1,"Reward2","congruent",1,"YA","baseline"
"470",5,772,6,86,3,835,1,"Reward4","congruent",0,"YA","baseline"
"471",5,772,6,87,4,477,0,"Reward2","incongruent",0,"YA","baseline"
"472",5,772,6,88,4,695,1,"Reward1","congruent",1,"YA","baseline"
"473",5,772,6,89,3,791,1,"Reward1","incongruent",1,"YA","baseline"
"474",5,772,6,90,3,1191,1,"Reward4","incongruent",1,"YA","baseline"
"475",5,772,6,91,4,554,1,"Reward4","congruent",1,"YA","baseline"
"476",5,772,6,92,3,803,1,"Reward2","incongruent",1,"YA","baseline"
"477",5,772,6,93,3,603,1,"Reward1","congruent",0,"YA","baseline"
"478",5,772,6,94,4,640,1,"Reward4","congruent",0,"YA","baseline"
"479",5,772,6,95,4,836,1,"Reward1","congruent",0,"YA","baseline"
"480",5,772,6,96,3,886,1,"Reward4","congruent",1,"YA","baseline"
"481",6,1102,6,1,3,1775,1,"Reward4","congruent",0,"YA","baseline"
"482",6,1102,6,2,3,622,1,"Reward2","incongruent",1,"YA","baseline"
"483",6,1102,6,3,3,514,1,"Reward1","congruent",1,"YA","baseline"
"484",6,1102,6,4,4,1837,1,"Reward1","incongruent",1,"YA","baseline"
"485",6,1102,6,5,4,1577,1,"Reward4","congruent",1,"YA","baseline"
"486",6,1102,6,6,NA,0,0,"Reward2","congruent",0,"YA","baseline"
"487",6,1102,6,7,3,1620,1,"Reward1","congruent",1,"YA","baseline"
"488",6,1102,6,8,3,1928,1,"Reward4","incongruent",1,"YA","baseline"
"489",6,1102,6,9,NA,0,0,"Reward1","incongruent",0,"YA","baseline"
"490",6,1102,6,10,3,733,1,"Reward4","incongruent",1,"YA","baseline"
"491",6,1102,6,11,3,1272,1,"Reward1","congruent",0,"YA","baseline"
"492",6,1102,6,12,3,1432,0,"Reward2","congruent",1,"YA","baseline"
"493",6,1102,6,13,3,1836,1,"Reward1","congruent",0,"YA","baseline"
"494",6,1102,6,14,4,1348,1,"Reward1","congruent",0,"YA","baseline"
"495",6,1102,6,15,4,1439,0,"Reward2","congruent",0,"YA","baseline"
"496",6,1102,6,16,3,1834,1,"Reward2","incongruent",0,"YA","baseline"
"497",6,1102,6,17,3,1017,0,"Reward4","incongruent",0,"YA","baseline"
"498",6,1102,6,18,4,1135,1,"Reward4","incongruent",1,"YA","baseline"
"499",6,1102,6,19,4,1197,1,"Reward1","congruent",1,"YA","baseline"
"500",6,1102,6,20,4,1309,1,"Reward4","congruent",0,"YA","baseline"
"501",6,1102,6,21,NA,0,0,"Reward1","congruent",0,"YA","baseline"
"502",6,1102,6,22,3,1635,1,"Reward4","incongruent",0,"YA","baseline"
"503",6,1102,6,23,3,902,1,"Reward2","congruent",1,"YA","baseline"
"504",6,1102,6,24,4,1572,1,"Reward4","incongruent",0,"YA","baseline"
"505",6,1102,6,25,4,1341,1,"Reward1","congruent",0,"YA","baseline"
"506",6,1102,6,26,3,1475,1,"Reward4","incongruent",0,"YA","baseline"
"507",6,1102,6,27,3,1465,0,"Reward1","incongruent",1,"YA","baseline"
"508",6,1102,6,28,3,1695,1,"Reward4","congruent",0,"YA","baseline"
"509",6,1102,6,29,4,1256,1,"Reward2","incongruent",0,"YA","baseline"
"510",6,1102,6,30,3,787,1,"Reward4","congruent",1,"YA","baseline"
"511",6,1102,6,31,3,1131,1,"Reward2","incongruent",0,"YA","baseline"
"512",6,1102,6,32,3,1666,0,"Reward2","incongruent",1,"YA","baseline"
"513",6,1102,6,33,4,731,0,"Reward1","incongruent",1,"YA","baseline"
"514",6,1102,6,34,3,1207,1,"Reward4","incongruent",1,"YA","baseline"
"515",6,1102,6,35,4,1125,1,"Reward4","congruent",1,"YA","baseline"
"516",6,1102,6,36,4,922,1,"Reward4","congruent",0,"YA","baseline"
"517",6,1102,6,37,4,898,0,"Reward4","congruent",1,"YA","baseline"
"518",6,1102,6,38,3,634,1,"Reward1","incongruent",1,"YA","baseline"
"519",6,1102,6,39,3,1662,0,"Reward1","congruent",1,"YA","baseline"
"520",6,1102,6,40,4,901,1,"Reward2","congruent",0,"YA","baseline"
"521",6,1102,6,41,4,1048,0,"Reward2","incongruent",1,"YA","baseline"
"522",6,1102,6,42,4,720,1,"Reward2","incongruent",0,"YA","baseline"
"523",6,1102,6,43,3,1517,1,"Reward1","congruent",1,"YA","baseline"
"524",6,1102,6,44,3,1078,1,"Reward4","congruent",1,"YA","baseline"
"525",6,1102,6,45,4,763,1,"Reward4","incongruent",1,"YA","baseline"
"526",6,1102,6,46,3,1532,1,"Reward2","congruent",0,"YA","baseline"
"527",6,1102,6,47,4,1292,1,"Reward1","incongruent",0,"YA","baseline"
"528",6,1102,6,48,4,1136,1,"Reward1","incongruent",1,"YA","baseline"
"529",6,1102,6,49,3,1803,1,"Reward4","congruent",0,"YA","baseline"
"530",6,1102,6,50,3,1344,1,"Reward2","incongruent",1,"YA","baseline"
"531",6,1102,6,51,3,1509,1,"Reward2","incongruent",0,"YA","baseline"
"532",6,1102,6,52,4,1604,1,"Reward4","congruent",1,"YA","baseline"
"533",6,1102,6,53,3,1943,1,"Reward2","congruent",1,"YA","baseline"
"534",6,1102,6,54,NA,0,0,"Reward4","incongruent",0,"YA","baseline"
"535",6,1102,6,55,3,679,1,"Reward4","incongruent",1,"YA","baseline"
"536",6,1102,6,56,4,973,1,"Reward1","incongruent",0,"YA","baseline"
"537",6,1102,6,57,4,1193,1,"Reward2","incongruent",0,"YA","baseline"
"538",6,1102,6,58,3,726,1,"Reward2","congruent",0,"YA","baseline"
"539",6,1102,6,59,4,1385,1,"Reward2","congruent",1,"YA","baseline"
"540",6,1102,6,60,4,725,0,"Reward1","incongruent",0,"YA","baseline"
"541",6,1102,6,61,3,1707,0,"Reward2","incongruent",1,"YA","baseline"
"542",6,1102,6,62,3,877,1,"Reward4","incongruent",0,"YA","baseline"
"543",6,1102,6,63,4,800,1,"Reward4","incongruent",0,"YA","baseline"
"544",6,1102,6,64,3,1958,1,"Reward2","incongruent",0,"YA","baseline"
"545",6,1102,6,65,3,1762,1,"Reward1","incongruent",1,"YA","baseline"
"546",6,1102,6,66,4,1680,1,"Reward1","incongruent",0,"YA","baseline"
"547",6,1102,6,67,3,1157,1,"Reward4","incongruent",0,"YA","baseline"
"548",6,1102,6,68,4,722,1,"Reward2","congruent",1,"YA","baseline"
"549",6,1102,6,69,4,584,1,"Reward4","congruent",0,"YA","baseline"
"550",6,1102,6,70,4,931,0,"Reward1","incongruent",1,"YA","baseline"
"551",6,1102,6,71,4,570,1,"Reward1","congruent",1,"YA","baseline"
"552",6,1102,6,72,3,1494,1,"Reward2","congruent",0,"YA","baseline"
"553",6,1102,6,73,4,1102,1,"Reward1","incongruent",0,"YA","baseline"
"554",6,1102,6,74,4,1129,1,"Reward2","congruent",0,"YA","baseline"
"555",6,1102,6,75,3,1226,0,"Reward2","incongruent",1,"YA","baseline"
"556",6,1102,6,76,4,1317,1,"Reward2","congruent",1,"YA","baseline"
"557",6,1102,6,77,3,866,1,"Reward1","incongruent",0,"YA","baseline"
"558",6,1102,6,78,3,566,1,"Reward1","incongruent",0,"YA","baseline"
"559",6,1102,6,79,3,1518,0,"Reward4","incongruent",1,"YA","baseline"
"560",6,1102,6,80,3,1193,1,"Reward2","congruent",1,"YA","baseline"
"561",6,1102,6,81,4,882,1,"Reward2","congruent",0,"YA","baseline"
"562",6,1102,6,82,3,1568,1,"Reward2","incongruent",1,"YA","baseline"
"563",6,1102,6,83,3,799,1,"Reward1","congruent",0,"YA","baseline"
"564",6,1102,6,84,4,1711,1,"Reward1","congruent",1,"YA","baseline"
"565",6,1102,6,85,3,624,1,"Reward2","congruent",1,"YA","baseline"
"566",6,1102,6,86,3,1000,0,"Reward4","congruent",0,"YA","baseline"
"567",6,1102,6,87,4,1757,1,"Reward2","incongruent",0,"YA","baseline"
"568",6,1102,6,88,3,1119,1,"Reward1","congruent",1,"YA","baseline"
"569",6,1102,6,89,4,1168,1,"Reward1","incongruent",1,"YA","baseline"
"570",6,1102,6,90,4,687,1,"Reward4","incongruent",1,"YA","baseline"
"571",6,1102,6,91,3,1575,1,"Reward4","congruent",1,"YA","baseline"
"572",6,1102,6,92,4,1108,1,"Reward2","incongruent",1,"YA","baseline"
"573",6,1102,6,93,4,423,1,"Reward1","congruent",0,"YA","baseline"
"574",6,1102,6,94,3,1501,1,"Reward4","congruent",0,"YA","baseline"
"575",6,1102,6,95,3,797,1,"Reward1","congruent",0,"YA","baseline"
"576",6,1102,6,96,4,902,1,"Reward4","congruent",1,"YA","baseline"
"577",7,689,6,1,3,947,1,"Reward4","incongruent",0,"YA","baseline"
"578",7,689,6,2,4,1174,1,"Reward2","congruent",1,"YA","baseline"
"579",7,689,6,3,3,792,1,"Reward1","incongruent",1,"YA","baseline"
"580",7,689,6,4,3,621,1,"Reward1","congruent",1,"YA","baseline"
"581",7,689,6,5,4,827,1,"Reward4","incongruent",1,"YA","baseline"
"582",7,689,6,6,4,924,1,"Reward2","incongruent",0,"YA","baseline"
"583",7,689,6,7,4,580,1,"Reward1","incongruent",1,"YA","baseline"
"584",7,689,6,8,3,886,1,"Reward4","congruent",1,"YA","baseline"
"585",7,689,6,9,3,682,1,"Reward1","congruent",0,"YA","baseline"
"586",7,689,6,10,4,921,1,"Reward4","congruent",1,"YA","baseline"
"587",7,689,6,11,4,890,1,"Reward1","incongruent",0,"YA","baseline"
"588",7,689,6,12,4,939,1,"Reward2","incongruent",1,"YA","baseline"
"589",7,689,6,13,3,592,1,"Reward1","incongruent",0,"YA","baseline"
"590",7,689,6,14,4,809,1,"Reward1","incongruent",0,"YA","baseline"
"591",7,689,6,15,3,849,1,"Reward2","incongruent",0,"YA","baseline"
"592",7,689,6,16,3,668,1,"Reward2","congruent",0,"YA","baseline"
"593",7,689,6,17,4,1017,1,"Reward4","congruent",0,"YA","baseline"
"594",7,689,6,18,3,595,1,"Reward4","congruent",1,"YA","baseline"
"595",7,689,6,19,4,559,1,"Reward1","incongruent",1,"YA","baseline"
"596",7,689,6,20,3,1587,0,"Reward4","incongruent",0,"YA","baseline"
"597",7,689,6,21,4,1342,1,"Reward1","incongruent",0,"YA","baseline"
"598",7,689,6,22,3,719,1,"Reward4","congruent",0,"YA","baseline"
"599",7,689,6,23,4,570,1,"Reward2","incongruent",1,"YA","baseline"
"600",7,689,6,24,3,785,1,"Reward4","congruent",0,"YA","baseline"
"601",7,689,6,25,3,592,1,"Reward1","incongruent",0,"YA","baseline"
"602",7,689,6,26,4,1001,1,"Reward4","congruent",0,"YA","baseline"
"603",7,689,6,27,4,641,1,"Reward1","congruent",1,"YA","baseline"
"604",7,689,6,28,3,784,1,"Reward4","incongruent",0,"YA","baseline"
"605",7,689,6,29,4,1404,1,"Reward2","congruent",0,"YA","baseline"
"606",7,689,6,30,4,647,1,"Reward4","incongruent",1,"YA","baseline"
"607",7,689,6,31,4,710,1,"Reward2","congruent",0,"YA","baseline"
"608",7,689,6,32,4,1855,1,"Reward2","congruent",1,"YA","baseline"
"609",7,689,6,33,4,838,1,"Reward1","congruent",1,"YA","baseline"
"610",7,689,6,34,3,723,1,"Reward4","congruent",1,"YA","baseline"
"611",7,689,6,35,3,846,1,"Reward4","incongruent",1,"YA","baseline"
"612",7,689,6,36,3,651,1,"Reward4","incongruent",0,"YA","baseline"
"613",7,689,6,37,3,738,1,"Reward4","incongruent",1,"YA","baseline"
"614",7,689,6,38,4,918,1,"Reward1","congruent",1,"YA","baseline"
"615",7,689,6,39,4,900,1,"Reward1","incongruent",1,"YA","baseline"
"616",7,689,6,40,4,1119,1,"Reward2","incongruent",0,"YA","baseline"
"617",7,689,6,41,4,694,1,"Reward2","congruent",1,"YA","baseline"
"618",7,689,6,42,3,710,1,"Reward2","congruent",0,"YA","baseline"
"619",7,689,6,43,3,733,1,"Reward1","incongruent",1,"YA","baseline"
"620",7,689,6,44,4,688,1,"Reward4","incongruent",1,"YA","baseline"
"621",7,689,6,45,4,755,1,"Reward4","congruent",1,"YA","baseline"
"622",7,689,6,46,3,1196,1,"Reward2","incongruent",0,"YA","baseline"
"623",7,689,6,47,4,1346,1,"Reward1","congruent",0,"YA","baseline"
"624",7,689,6,48,NA,0,0,"Reward1","congruent",1,"YA","baseline"
"625",7,689,6,49,NA,0,0,"Reward4","incongruent",0,"YA","baseline"
"626",7,689,6,50,3,968,1,"Reward2","congruent",1,"YA","baseline"
"627",7,689,6,51,3,839,1,"Reward2","congruent",0,"YA","baseline"
"628",7,689,6,52,3,600,1,"Reward4","incongruent",1,"YA","baseline"
"629",7,689,6,53,3,1157,1,"Reward2","incongruent",1,"YA","baseline"
"630",7,689,6,54,4,732,1,"Reward4","congruent",0,"YA","baseline"
"631",7,689,6,55,4,758,1,"Reward4","congruent",1,"YA","baseline"
"632",7,689,6,56,3,1093,1,"Reward1","congruent",0,"YA","baseline"
"633",7,689,6,57,3,648,1,"Reward2","congruent",0,"YA","baseline"
"634",7,689,6,58,4,660,1,"Reward2","incongruent",0,"YA","baseline"
"635",7,689,6,59,4,613,1,"Reward2","incongruent",1,"YA","baseline"
"636",7,689,6,60,3,568,1,"Reward1","congruent",0,"YA","baseline"
"637",7,689,6,61,3,579,1,"Reward2","congruent",1,"YA","baseline"
"638",7,689,6,62,4,687,1,"Reward4","congruent",0,"YA","baseline"
"639",7,689,6,63,3,510,1,"Reward4","congruent",0,"YA","baseline"
"640",7,689,6,64,4,686,1,"Reward2","congruent",0,"YA","baseline"
"641",7,689,6,65,3,896,1,"Reward1","congruent",1,"YA","baseline"
"642",7,689,6,66,4,591,1,"Reward1","congruent",0,"YA","baseline"
"643",7,689,6,67,3,718,1,"Reward4","congruent",0,"YA","baseline"
"644",7,689,6,68,3,511,1,"Reward2","incongruent",1,"YA","baseline"
"645",7,689,6,69,3,529,1,"Reward4","incongruent",0,"YA","baseline"
"646",7,689,6,70,3,1260,1,"Reward1","congruent",1,"YA","baseline"
"647",7,689,6,71,3,667,1,"Reward1","incongruent",1,"YA","baseline"
"648",7,689,6,72,4,1054,1,"Reward2","incongruent",0,"YA","baseline"
"649",7,689,6,73,3,729,1,"Reward1","congruent",0,"YA","baseline"
"650",7,689,6,74,3,924,1,"Reward2","incongruent",0,"YA","baseline"
"651",7,689,6,75,4,1319,1,"Reward2","congruent",1,"YA","baseline"
"652",7,689,6,76,3,832,1,"Reward2","incongruent",1,"YA","baseline"
"653",7,689,6,77,4,1177,1,"Reward1","congruent",0,"YA","baseline"
"654",7,689,6,78,4,718,1,"Reward1","congruent",0,"YA","baseline"
"655",7,689,6,79,3,746,0,"Reward4","congruent",1,"YA","baseline"
"656",7,689,6,80,4,1036,1,"Reward2","incongruent",1,"YA","baseline"
"657",7,689,6,81,3,616,1,"Reward2","incongruent",0,"YA","baseline"
"658",7,689,6,82,3,1064,1,"Reward2","congruent",1,"YA","baseline"
"659",7,689,6,83,3,815,1,"Reward1","incongruent",0,"YA","baseline"
"660",7,689,6,84,3,1049,1,"Reward1","incongruent",1,"YA","baseline"
"661",7,689,6,85,3,922,1,"Reward2","incongruent",1,"YA","baseline"
"662",7,689,6,86,4,904,1,"Reward4","incongruent",0,"YA","baseline"
"663",7,689,6,87,4,797,1,"Reward2","congruent",0,"YA","baseline"
"664",7,689,6,88,4,843,1,"Reward1","incongruent",1,"YA","baseline"
"665",7,689,6,89,4,945,1,"Reward1","congruent",1,"YA","baseline"
"666",7,689,6,90,3,1011,1,"Reward4","congruent",1,"YA","baseline"
"667",7,689,6,91,3,644,1,"Reward4","incongruent",1,"YA","baseline"
"668",7,689,6,92,3,1347,1,"Reward2","congruent",1,"YA","baseline"
"669",7,689,6,93,3,715,1,"Reward1","incongruent",0,"YA","baseline"
"670",7,689,6,94,4,689,1,"Reward4","incongruent",0,"YA","baseline"
"671",7,689,6,95,4,723,1,"Reward1","incongruent",0,"YA","baseline"
"672",7,689,6,96,4,906,1,"Reward4","incongruent",1,"YA","baseline"
"673",8,592,6,1,4,560,1,"Reward4","incongruent",0,"YA","baseline"
"674",8,592,6,2,3,536,1,"Reward2","congruent",1,"YA","baseline"
"675",8,592,6,3,4,632,1,"Reward1","incongruent",1,"YA","baseline"
"676",8,592,6,4,4,709,1,"Reward1","congruent",1,"YA","baseline"
"677",8,592,6,5,3,719,1,"Reward4","incongruent",1,"YA","baseline"
"678",8,592,6,6,3,646,1,"Reward2","incongruent",0,"YA","baseline"
"679",8,592,6,7,3,1066,1,"Reward1","incongruent",1,"YA","baseline"
"680",8,592,6,8,4,636,1,"Reward4","congruent",1,"YA","baseline"
"681",8,592,6,9,4,606,1,"Reward1","congruent",0,"YA","baseline"
"682",8,592,6,10,3,639,1,"Reward4","congruent",1,"YA","baseline"
"683",8,592,6,11,3,619,1,"Reward1","incongruent",0,"YA","baseline"
"684",8,592,6,12,3,678,1,"Reward2","incongruent",1,"YA","baseline"
"685",8,592,6,13,4,534,1,"Reward1","incongruent",0,"YA","baseline"
"686",8,592,6,14,3,1225,1,"Reward1","incongruent",0,"YA","baseline"
"687",8,592,6,15,4,807,1,"Reward2","incongruent",0,"YA","baseline"
"688",8,592,6,16,4,592,1,"Reward2","congruent",0,"YA","baseline"
"689",8,592,6,17,3,824,1,"Reward4","congruent",0,"YA","baseline"
"690",8,592,6,18,4,663,1,"Reward4","congruent",1,"YA","baseline"
"691",8,592,6,19,3,838,1,"Reward1","incongruent",1,"YA","baseline"
"692",8,592,6,20,3,689,1,"Reward4","incongruent",0,"YA","baseline"
"693",8,592,6,21,3,606,1,"Reward1","incongruent",0,"YA","baseline"
"694",8,592,6,22,4,651,1,"Reward4","congruent",0,"YA","baseline"
"695",8,592,6,23,3,513,1,"Reward2","incongruent",1,"YA","baseline"
"696",8,592,6,24,4,1115,1,"Reward4","congruent",0,"YA","baseline"
"697",8,592,6,25,4,496,1,"Reward1","incongruent",0,"YA","baseline"
"698",8,592,6,26,3,565,1,"Reward4","congruent",0,"YA","baseline"
"699",8,592,6,27,3,504,1,"Reward1","congruent",1,"YA","baseline"
"700",8,592,6,28,4,868,1,"Reward4","incongruent",0,"YA","baseline"
"701",8,592,6,29,3,651,1,"Reward2","congruent",0,"YA","baseline"
"702",8,592,6,30,3,494,1,"Reward4","incongruent",1,"YA","baseline"
"703",8,592,6,31,3,472,1,"Reward2","congruent",0,"YA","baseline"
"704",8,592,6,32,3,526,1,"Reward2","congruent",1,"YA","baseline"
"705",8,592,6,33,3,607,1,"Reward1","congruent",1,"YA","baseline"
"706",8,592,6,34,4,474,1,"Reward4","congruent",1,"YA","baseline"
"707",8,592,6,35,4,617,1,"Reward4","incongruent",1,"YA","baseline"
"708",8,592,6,36,3,1296,0,"Reward4","incongruent",0,"YA","baseline"
"709",8,592,6,37,4,647,1,"Reward4","incongruent",1,"YA","baseline"
"710",8,592,6,38,3,537,1,"Reward1","congruent",1,"YA","baseline"
"711",8,592,6,39,3,661,1,"Reward1","incongruent",1,"YA","baseline"
"712",8,592,6,40,3,540,1,"Reward2","incongruent",0,"YA","baseline"
"713",8,592,6,41,3,508,1,"Reward2","congruent",1,"YA","baseline"
"714",8,592,6,42,4,650,1,"Reward2","congruent",0,"YA","baseline"
"715",8,592,6,43,4,1110,1,"Reward1","incongruent",1,"YA","baseline"
"716",8,592,6,44,3,750,1,"Reward4","incongruent",1,"YA","baseline"
"717",8,592,6,45,3,558,1,"Reward4","congruent",1,"YA","baseline"
"718",8,592,6,46,4,619,1,"Reward2","incongruent",0,"YA","baseline"
"719",8,592,6,47,3,656,1,"Reward1","congruent",0,"YA","baseline"
"720",8,592,6,48,4,437,1,"Reward1","congruent",1,"YA","baseline"
"721",8,592,6,49,3,501,1,"Reward4","incongruent",0,"YA","baseline"
"722",8,592,6,50,4,848,1,"Reward2","congruent",1,"YA","baseline"
"723",8,592,6,51,4,1164,1,"Reward2","congruent",0,"YA","baseline"
"724",8,592,6,52,4,657,1,"Reward4","incongruent",1,"YA","baseline"
"725",8,592,6,53,4,629,1,"Reward2","incongruent",1,"YA","baseline"
"726",8,592,6,54,3,465,1,"Reward4","congruent",0,"YA","baseline"
"727",8,592,6,55,3,976,1,"Reward4","congruent",1,"YA","baseline"
"728",8,592,6,56,4,891,1,"Reward1","congruent",0,"YA","baseline"
"729",8,592,6,57,4,743,1,"Reward2","congruent",0,"YA","baseline"
"730",8,592,6,58,3,690,1,"Reward2","incongruent",0,"YA","baseline"
"731",8,592,6,59,3,588,1,"Reward2","incongruent",1,"YA","baseline"
"732",8,592,6,60,4,731,1,"Reward1","congruent",0,"YA","baseline"
"733",8,592,6,61,4,1380,1,"Reward2","congruent",1,"YA","baseline"
"734",8,592,6,62,3,589,1,"Reward4","congruent",0,"YA","baseline"
"735",8,592,6,63,4,688,1,"Reward4","congruent",0,"YA","baseline"
"736",8,592,6,64,3,620,1,"Reward2","congruent",0,"YA","baseline"
"737",8,592,6,65,4,556,1,"Reward1","congruent",1,"YA","baseline"
"738",8,592,6,66,3,755,1,"Reward1","congruent",0,"YA","baseline"
"739",8,592,6,67,4,792,1,"Reward4","congruent",0,"YA","baseline"
"740",8,592,6,68,4,814,1,"Reward2","incongruent",1,"YA","baseline"
"741",8,592,6,69,4,673,1,"Reward4","incongruent",0,"YA","baseline"
"742",8,592,6,70,4,887,1,"Reward1","congruent",1,"YA","baseline"
"743",8,592,6,71,4,548,1,"Reward1","incongruent",1,"YA","baseline"
"744",8,592,6,72,3,701,1,"Reward2","incongruent",0,"YA","baseline"
"745",8,592,6,73,4,694,1,"Reward1","congruent",0,"YA","baseline"
"746",8,592,6,74,4,668,1,"Reward2","incongruent",0,"YA","baseline"
"747",8,592,6,75,3,470,1,"Reward2","congruent",1,"YA","baseline"
"748",8,592,6,76,4,659,1,"Reward2","incongruent",1,"YA","baseline"
"749",8,592,6,77,3,623,1,"Reward1","congruent",0,"YA","baseline"
"750",8,592,6,78,3,584,1,"Reward1","congruent",0,"YA","baseline"
"751",8,592,6,79,3,940,1,"Reward4","congruent",1,"YA","baseline"
"752",8,592,6,80,3,1217,1,"Reward2","incongruent",1,"YA","baseline"
"753",8,592,6,81,4,606,1,"Reward2","incongruent",0,"YA","baseline"
"754",8,592,6,82,4,615,1,"Reward2","congruent",1,"YA","baseline"
"755",8,592,6,83,4,752,1,"Reward1","incongruent",0,"YA","baseline"
"756",8,592,6,84,4,515,1,"Reward1","incongruent",1,"YA","baseline"
"757",8,592,6,85,4,657,1,"Reward2","incongruent",1,"YA","baseline"
"758",8,592,6,86,3,614,1,"Reward4","incongruent",0,"YA","baseline"
"759",8,592,6,87,3,880,1,"Reward2","congruent",0,"YA","baseline"
"760",8,592,6,88,3,780,1,"Reward1","incongruent",1,"YA","baseline"
"761",8,592,6,89,3,748,1,"Reward1","congruent",1,"YA","baseline"
"762",8,592,6,90,4,1265,1,"Reward4","congruent",1,"YA","baseline"
"763",8,592,6,91,4,470,1,"Reward4","incongruent",1,"YA","baseline"
"764",8,592,6,92,4,495,1,"Reward2","congruent",1,"YA","baseline"
"765",8,592,6,93,4,853,1,"Reward1","incongruent",0,"YA","baseline"
"766",8,592,6,94,3,588,1,"Reward4","incongruent",0,"YA","baseline"
"767",8,592,6,95,3,621,1,"Reward1","incongruent",0,"YA","baseline"
"768",8,592,6,96,3,1015,1,"Reward4","incongruent",1,"YA","baseline"
"769",9,617,6,1,4,532,1,"Reward4","congruent",0,"YA","baseline"
"770",9,617,6,2,3,1703,0,"Reward2","incongruent",1,"YA","baseline"
"771",9,617,6,3,4,607,1,"Reward1","congruent",1,"YA","baseline"
"772",9,617,6,4,3,579,1,"Reward1","incongruent",1,"YA","baseline"
"773",9,617,6,5,3,783,1,"Reward4","congruent",1,"YA","baseline"
"774",9,617,6,6,3,849,1,"Reward2","congruent",0,"YA","baseline"
"775",9,617,6,7,4,1407,1,"Reward1","congruent",1,"YA","baseline"
"776",9,617,6,8,4,899,1,"Reward4","incongruent",1,"YA","baseline"
"777",9,617,6,9,4,634,1,"Reward1","incongruent",0,"YA","baseline"
"778",9,617,6,10,4,623,1,"Reward4","incongruent",1,"YA","baseline"
"779",9,617,6,11,4,887,1,"Reward1","congruent",0,"YA","baseline"
"780",9,617,6,12,3,912,1,"Reward2","congruent",1,"YA","baseline"
"781",9,617,6,13,4,659,1,"Reward1","congruent",0,"YA","baseline"
"782",9,617,6,14,NA,0,0,"Reward1","congruent",0,"YA","baseline"
"783",9,617,6,15,4,740,1,"Reward2","congruent",0,"YA","baseline"
"784",9,617,6,16,4,599,1,"Reward2","incongruent",0,"YA","baseline"
"785",9,617,6,17,3,717,1,"Reward4","incongruent",0,"YA","baseline"
"786",9,617,6,18,4,637,0,"Reward4","incongruent",1,"YA","baseline"
"787",9,617,6,19,3,726,1,"Reward1","congruent",1,"YA","baseline"
"788",9,617,6,20,3,727,1,"Reward4","congruent",0,"YA","baseline"
"789",9,617,6,21,3,685,1,"Reward1","congruent",0,"YA","baseline"
"790",9,617,6,22,4,517,1,"Reward4","incongruent",0,"YA","baseline"
"791",9,617,6,23,4,1057,1,"Reward2","congruent",1,"YA","baseline"
"792",9,617,6,24,3,928,1,"Reward4","incongruent",0,"YA","baseline"
"793",9,617,6,25,3,979,1,"Reward1","congruent",0,"YA","baseline"
"794",9,617,6,26,4,617,1,"Reward4","incongruent",0,"YA","baseline"
"795",9,617,6,27,3,532,1,"Reward1","incongruent",1,"YA","baseline"
"796",9,617,6,28,4,540,1,"Reward4","congruent",0,"YA","baseline"
"797",9,617,6,29,3,642,1,"Reward2","incongruent",0,"YA","baseline"
"798",9,617,6,30,4,684,1,"Reward4","congruent",1,"YA","baseline"
"799",9,617,6,31,4,968,1,"Reward2","incongruent",0,"YA","baseline"
"800",9,617,6,32,3,1339,1,"Reward2","incongruent",1,"YA","baseline"
"801",9,617,6,33,4,716,1,"Reward1","incongruent",1,"YA","baseline"
"802",9,617,6,34,4,748,1,"Reward4","incongruent",1,"YA","baseline"
"803",9,617,6,35,4,791,0,"Reward4","congruent",1,"YA","baseline"
"804",9,617,6,36,3,522,1,"Reward4","congruent",0,"YA","baseline"
"805",9,617,6,37,4,736,1,"Reward4","congruent",1,"YA","baseline"
"806",9,617,6,38,4,1114,1,"Reward1","incongruent",1,"YA","baseline"
"807",9,617,6,39,3,1583,1,"Reward1","congruent",1,"YA","baseline"
"808",9,617,6,40,3,720,1,"Reward2","congruent",0,"YA","baseline"
"809",9,617,6,41,4,907,1,"Reward2","incongruent",1,"YA","baseline"
"810",9,617,6,42,3,511,1,"Reward2","incongruent",0,"YA","baseline"
"811",9,617,6,43,4,775,1,"Reward1","congruent",1,"YA","baseline"
"812",9,617,6,44,4,829,1,"Reward4","congruent",1,"YA","baseline"
"813",9,617,6,45,3,581,1,"Reward4","incongruent",1,"YA","baseline"
"814",9,617,6,46,4,482,1,"Reward2","congruent",0,"YA","baseline"
"815",9,617,6,47,3,519,1,"Reward1","incongruent",0,"YA","baseline"
"816",9,617,6,48,3,846,1,"Reward1","incongruent",1,"YA","baseline"
"817",9,617,6,49,4,698,1,"Reward4","congruent",0,"YA","baseline"
"818",9,617,6,50,4,762,1,"Reward2","incongruent",1,"YA","baseline"
"819",9,617,6,51,4,611,1,"Reward2","incongruent",0,"YA","baseline"
"820",9,617,6,52,3,1076,1,"Reward4","congruent",1,"YA","baseline"
"821",9,617,6,53,4,617,1,"Reward2","congruent",1,"YA","baseline"
"822",9,617,6,54,3,492,1,"Reward4","incongruent",0,"YA","baseline"
"823",9,617,6,55,4,1276,1,"Reward4","incongruent",1,"YA","baseline"
"824",9,617,6,56,3,456,1,"Reward1","incongruent",0,"YA","baseline"
"825",9,617,6,57,3,1150,1,"Reward2","incongruent",0,"YA","baseline"
"826",9,617,6,58,4,684,1,"Reward2","congruent",0,"YA","baseline"
"827",9,617,6,59,3,599,1,"Reward2","congruent",1,"YA","baseline"
"828",9,617,6,60,4,628,1,"Reward1","incongruent",0,"YA","baseline"
"829",9,617,6,61,4,564,0,"Reward2","incongruent",1,"YA","baseline"
"830",9,617,6,62,4,820,1,"Reward4","incongruent",0,"YA","baseline"
"831",9,617,6,63,3,1145,1,"Reward4","incongruent",0,"YA","baseline"
"832",9,617,6,64,4,1154,1,"Reward2","incongruent",0,"YA","baseline"
"833",9,617,6,65,4,740,1,"Reward1","incongruent",1,"YA","baseline"
"834",9,617,6,66,3,762,1,"Reward1","incongruent",0,"YA","baseline"
"835",9,617,6,67,4,683,1,"Reward4","incongruent",0,"YA","baseline"
"836",9,617,6,68,3,1266,1,"Reward2","congruent",1,"YA","baseline"
"837",9,617,6,69,3,759,1,"Reward4","congruent",0,"YA","baseline"
"838",9,617,6,70,4,598,1,"Reward1","incongruent",1,"YA","baseline"
"839",9,617,6,71,3,803,1,"Reward1","congruent",1,"YA","baseline"
"840",9,617,6,72,4,502,1,"Reward2","congruent",0,"YA","baseline"
"841",9,617,6,73,3,689,1,"Reward1","incongruent",0,"YA","baseline"
"842",9,617,6,74,3,780,1,"Reward2","congruent",0,"YA","baseline"
"843",9,617,6,75,3,893,1,"Reward2","incongruent",1,"YA","baseline"
"844",9,617,6,76,3,927,1,"Reward2","congruent",1,"YA","baseline"
"845",9,617,6,77,4,1037,1,"Reward1","incongruent",0,"YA","baseline"
"846",9,617,6,78,4,869,1,"Reward1","incongruent",0,"YA","baseline"
"847",9,617,6,79,3,720,1,"Reward4","incongruent",1,"YA","baseline"
"848",9,617,6,80,4,613,1,"Reward2","congruent",1,"YA","baseline"
"849",9,617,6,81,3,614,1,"Reward2","congruent",0,"YA","baseline"
"850",9,617,6,82,4,646,1,"Reward2","incongruent",1,"YA","baseline"
"851",9,617,6,83,4,474,1,"Reward1","congruent",0,"YA","baseline"
"852",9,617,6,84,3,1053,1,"Reward1","congruent",1,"YA","baseline"
"853",9,617,6,85,4,589,1,"Reward2","congruent",1,"YA","baseline"
"854",9,617,6,86,3,1092,1,"Reward4","congruent",0,"YA","baseline"
"855",9,617,6,87,3,551,1,"Reward2","incongruent",0,"YA","baseline"
"856",9,617,6,88,4,609,1,"Reward1","congruent",1,"YA","baseline"
"857",9,617,6,89,3,472,1,"Reward1","incongruent",1,"YA","baseline"
"858",9,617,6,90,3,722,1,"Reward4","incongruent",1,"YA","baseline"
"859",9,617,6,91,3,1298,0,"Reward4","congruent",1,"YA","baseline"
"860",9,617,6,92,3,680,1,"Reward2","incongruent",1,"YA","baseline"
"861",9,617,6,93,3,989,1,"Reward1","congruent",0,"YA","baseline"
"862",9,617,6,94,3,1532,0,"Reward4","congruent",0,"YA","baseline"
"863",9,617,6,95,4,613,1,"Reward1","congruent",0,"YA","baseline"
"864",9,617,6,96,3,534,1,"Reward4","congruent",1,"YA","baseline"
"865",10,626,6,1,NA,0,0,"Reward4","congruent",0,"YA","baseline"
"866",10,626,6,2,3,782,1,"Reward2","incongruent",1,"YA","baseline"
"867",10,626,6,3,3,513,1,"Reward1","congruent",1,"YA","baseline"
"868",10,626,6,4,4,718,1,"Reward1","incongruent",1,"YA","baseline"
"869",10,626,6,5,4,597,1,"Reward4","congruent",1,"YA","baseline"
"870",10,626,6,6,4,1195,1,"Reward2","congruent",0,"YA","baseline"
"871",10,626,6,7,3,564,1,"Reward1","congruent",1,"YA","baseline"
"872",10,626,6,8,3,722,1,"Reward4","incongruent",1,"YA","baseline"
"873",10,626,6,9,3,633,1,"Reward1","incongruent",0,"YA","baseline"
"874",10,626,6,10,3,594,1,"Reward4","incongruent",1,"YA","baseline"
"875",10,626,6,11,3,967,1,"Reward1","congruent",0,"YA","baseline"
"876",10,626,6,12,4,532,1,"Reward2","congruent",1,"YA","baseline"
"877",10,626,6,13,3,592,1,"Reward1","congruent",0,"YA","baseline"
"878",10,626,6,14,4,1009,1,"Reward1","congruent",0,"YA","baseline"
"879",10,626,6,15,3,570,1,"Reward2","congruent",0,"YA","baseline"
"880",10,626,6,16,3,583,1,"Reward2","incongruent",0,"YA","baseline"
"881",10,626,6,17,4,626,1,"Reward4","incongruent",0,"YA","baseline"
"882",10,626,6,18,4,572,1,"Reward4","incongruent",1,"YA","baseline"
"883",10,626,6,19,4,691,1,"Reward1","congruent",1,"YA","baseline"
"884",10,626,6,20,4,658,1,"Reward4","congruent",0,"YA","baseline"
"885",10,626,6,21,4,920,1,"Reward1","congruent",0,"YA","baseline"
"886",10,626,6,22,3,492,1,"Reward4","incongruent",0,"YA","baseline"
"887",10,626,6,23,3,798,1,"Reward2","congruent",1,"YA","baseline"
"888",10,626,6,24,4,691,1,"Reward4","incongruent",0,"YA","baseline"
"889",10,626,6,25,4,663,1,"Reward1","congruent",0,"YA","baseline"
"890",10,626,6,26,3,737,1,"Reward4","incongruent",0,"YA","baseline"
"891",10,626,6,27,4,573,1,"Reward1","incongruent",1,"YA","baseline"
"892",10,626,6,28,3,795,1,"Reward4","congruent",0,"YA","baseline"
"893",10,626,6,29,4,823,1,"Reward2","incongruent",0,"YA","baseline"
"894",10,626,6,30,3,802,1,"Reward4","congruent",1,"YA","baseline"
"895",10,626,6,31,3,645,1,"Reward2","incongruent",0,"YA","baseline"
"896",10,626,6,32,4,1010,1,"Reward2","incongruent",1,"YA","baseline"
"897",10,626,6,33,3,739,1,"Reward1","incongruent",1,"YA","baseline"
"898",10,626,6,34,3,1351,1,"Reward4","incongruent",1,"YA","baseline"
"899",10,626,6,35,4,1452,1,"Reward4","congruent",1,"YA","baseline"
"900",10,626,6,36,4,722,1,"Reward4","congruent",0,"YA","baseline"
"901",10,626,6,37,3,497,1,"Reward4","congruent",1,"YA","baseline"
"902",10,626,6,38,3,756,1,"Reward1","incongruent",1,"YA","baseline"
"903",10,626,6,39,4,1137,1,"Reward1","congruent",1,"YA","baseline"
"904",10,626,6,40,4,749,1,"Reward2","congruent",0,"YA","baseline"
"905",10,626,6,41,3,789,1,"Reward2","incongruent",1,"YA","baseline"
"906",10,626,6,42,4,1247,1,"Reward2","incongruent",0,"YA","baseline"
"907",10,626,6,43,3,955,1,"Reward1","congruent",1,"YA","baseline"
"908",10,626,6,44,3,752,1,"Reward4","congruent",1,"YA","baseline"
"909",10,626,6,45,4,746,1,"Reward4","incongruent",1,"YA","baseline"
"910",10,626,6,46,3,680,1,"Reward2","congruent",0,"YA","baseline"
"911",10,626,6,47,4,661,1,"Reward1","incongruent",0,"YA","baseline"
"912",10,626,6,48,4,1460,1,"Reward1","incongruent",1,"YA","baseline"
"913",10,626,6,49,3,1573,1,"Reward4","congruent",0,"YA","baseline"
"914",10,626,6,50,3,945,1,"Reward2","incongruent",1,"YA","baseline"
"915",10,626,6,51,3,697,1,"Reward2","incongruent",0,"YA","baseline"
"916",10,626,6,52,4,751,1,"Reward4","congruent",1,"YA","baseline"
"917",10,626,6,53,3,830,1,"Reward2","congruent",1,"YA","baseline"
"918",10,626,6,54,4,1174,1,"Reward4","incongruent",0,"YA","baseline"
"919",10,626,6,55,3,1258,1,"Reward4","incongruent",1,"YA","baseline"
"920",10,626,6,56,4,569,1,"Reward1","incongruent",0,"YA","baseline"
"921",10,626,6,57,4,921,1,"Reward2","incongruent",0,"YA","baseline"
"922",10,626,6,58,3,755,1,"Reward2","congruent",0,"YA","baseline"
"923",10,626,6,59,4,947,1,"Reward2","congruent",1,"YA","baseline"
"924",10,626,6,60,3,743,1,"Reward1","incongruent",0,"YA","baseline"
"925",10,626,6,61,4,775,1,"Reward2","incongruent",1,"YA","baseline"
"926",10,626,6,62,3,644,1,"Reward4","incongruent",0,"YA","baseline"
"927",10,626,6,63,4,569,1,"Reward4","incongruent",0,"YA","baseline"
"928",10,626,6,64,3,1487,1,"Reward2","incongruent",0,"YA","baseline"
"929",10,626,6,65,3,577,1,"Reward1","incongruent",1,"YA","baseline"
"930",10,626,6,66,4,686,1,"Reward1","incongruent",0,"YA","baseline"
"931",10,626,6,67,3,542,1,"Reward4","incongruent",0,"YA","baseline"
"932",10,626,6,68,4,549,1,"Reward2","congruent",1,"YA","baseline"
"933",10,626,6,69,4,680,1,"Reward4","congruent",0,"YA","baseline"
"934",10,626,6,70,3,482,1,"Reward1","incongruent",1,"YA","baseline"
"935",10,626,6,71,4,896,1,"Reward1","congruent",1,"YA","baseline"
"936",10,626,6,72,3,551,1,"Reward2","congruent",0,"YA","baseline"
"937",10,626,6,73,4,427,1,"Reward1","incongruent",0,"YA","baseline"
"938",10,626,6,74,4,755,1,"Reward2","congruent",0,"YA","baseline"
"939",10,626,6,75,4,587,1,"Reward2","incongruent",1,"YA","baseline"
"940",10,626,6,76,4,622,1,"Reward2","congruent",1,"YA","baseline"
"941",10,626,6,77,3,1126,1,"Reward1","incongruent",0,"YA","baseline"
"942",10,626,6,78,3,735,1,"Reward1","incongruent",0,"YA","baseline"
"943",10,626,6,79,4,1257,1,"Reward4","incongruent",1,"YA","baseline"
"944",10,626,6,80,3,814,1,"Reward2","congruent",1,"YA","baseline"
"945",10,626,6,81,4,607,1,"Reward2","congruent",0,"YA","baseline"
"946",10,626,6,82,3,447,1,"Reward2","incongruent",1,"YA","baseline"
"947",10,626,6,83,3,703,1,"Reward1","congruent",0,"YA","baseline"
"948",10,626,6,84,4,556,1,"Reward1","congruent",1,"YA","baseline"
"949",10,626,6,85,3,504,1,"Reward2","congruent",1,"YA","baseline"
"950",10,626,6,86,4,861,1,"Reward4","congruent",0,"YA","baseline"
"951",10,626,6,87,4,631,1,"Reward2","incongruent",0,"YA","baseline"
"952",10,626,6,88,3,888,1,"Reward1","congruent",1,"YA","baseline"
"953",10,626,6,89,4,1397,1,"Reward1","incongruent",1,"YA","baseline"
"954",10,626,6,90,4,884,1,"Reward4","incongruent",1,"YA","baseline"
"955",10,626,6,91,3,745,1,"Reward4","congruent",1,"YA","baseline"
"956",10,626,6,92,4,725,1,"Reward2","incongruent",1,"YA","baseline"
"957",10,626,6,93,4,558,1,"Reward1","congruent",0,"YA","baseline"
"958",10,626,6,94,3,864,1,"Reward4","congruent",0,"YA","baseline"
"959",10,626,6,95,3,542,1,"Reward1","congruent",0,"YA","baseline"
"960",10,626,6,96,4,661,1,"Reward4","congruent",1,"YA","baseline"
"961",12,576,6,1,3,608,0,"Reward4","incongruent",0,"YA","baseline"
"962",12,576,6,2,3,608,1,"Reward2","congruent",1,"YA","baseline"
"963",12,576,6,3,4,651,1,"Reward1","incongruent",1,"YA","baseline"
"964",12,576,6,4,4,594,1,"Reward1","congruent",1,"YA","baseline"
"965",12,576,6,5,3,634,1,"Reward4","incongruent",1,"YA","baseline"
"966",12,576,6,6,3,628,1,"Reward2","incongruent",0,"YA","baseline"
"967",12,576,6,7,3,551,1,"Reward1","incongruent",1,"YA","baseline"
"968",12,576,6,8,4,623,1,"Reward4","congruent",1,"YA","baseline"
"969",12,576,6,9,4,630,1,"Reward1","congruent",0,"YA","baseline"
"970",12,576,6,10,3,564,1,"Reward4","congruent",1,"YA","baseline"
"971",12,576,6,11,3,592,1,"Reward1","incongruent",0,"YA","baseline"
"972",12,576,6,12,3,889,1,"Reward2","incongruent",1,"YA","baseline"
"973",12,576,6,13,4,607,1,"Reward1","incongruent",0,"YA","baseline"
"974",12,576,6,14,3,563,1,"Reward1","incongruent",0,"YA","baseline"
"975",12,576,6,15,4,684,1,"Reward2","incongruent",0,"YA","baseline"
"976",12,576,6,16,4,576,1,"Reward2","congruent",0,"YA","baseline"
"977",12,576,6,17,3,576,1,"Reward4","congruent",0,"YA","baseline"
"978",12,576,6,18,4,612,1,"Reward4","congruent",1,"YA","baseline"
"979",12,576,6,19,3,604,1,"Reward1","incongruent",1,"YA","baseline"
"980",12,576,6,20,3,605,1,"Reward4","incongruent",0,"YA","baseline"
"981",12,576,6,21,3,600,1,"Reward1","incongruent",0,"YA","baseline"
"982",12,576,6,22,4,630,1,"Reward4","congruent",0,"YA","baseline"
"983",12,576,6,23,3,575,1,"Reward2","incongruent",1,"YA","baseline"
"984",12,576,6,24,4,599,1,"Reward4","congruent",0,"YA","baseline"
"985",12,576,6,25,4,669,1,"Reward1","incongruent",0,"YA","baseline"
"986",12,576,6,26,3,658,1,"Reward4","congruent",0,"YA","baseline"
"987",12,576,6,27,3,512,1,"Reward1","congruent",1,"YA","baseline"
"988",12,576,6,28,4,557,1,"Reward4","incongruent",0,"YA","baseline"
"989",12,576,6,29,3,483,1,"Reward2","congruent",0,"YA","baseline"
"990",12,576,6,30,3,643,1,"Reward4","incongruent",1,"YA","baseline"
"991",12,576,6,31,3,568,1,"Reward2","congruent",0,"YA","baseline"
"992",12,576,6,32,3,559,1,"Reward2","congruent",1,"YA","baseline"
"993",12,576,6,33,3,492,1,"Reward1","congruent",1,"YA","baseline"
"994",12,576,6,34,4,659,1,"Reward4","congruent",1,"YA","baseline"
"995",12,576,6,35,4,565,1,"Reward4","incongruent",1,"YA","baseline"
"996",12,576,6,36,4,529,1,"Reward4","incongruent",0,"YA","baseline"
"997",12,576,6,37,4,630,1,"Reward4","incongruent",1,"YA","baseline"
"998",12,576,6,38,3,568,1,"Reward1","congruent",1,"YA","baseline"
"999",12,576,6,39,3,626,1,"Reward1","incongruent",1,"YA","baseline"
"1000",12,576,6,40,3,585,1,"Reward2","incongruent",0,"YA","baseline"
"1001",12,576,6,41,3,576,1,"Reward2","congruent",1,"YA","baseline"
"1002",12,576,6,42,4,660,1,"Reward2","congruent",0,"YA","baseline"
"1003",12,576,6,43,4,546,1,"Reward1","incongruent",1,"YA","baseline"
"1004",12,576,6,44,3,505,1,"Reward4","incongruent",1,"YA","baseline"
"1005",12,576,6,45,4,796,0,"Reward4","congruent",1,"YA","baseline"
"1006",12,576,6,46,4,633,1,"Reward2","incongruent",0,"YA","baseline"
"1007",12,576,6,47,3,837,1,"Reward1","congruent",0,"YA","baseline"
"1008",12,576,6,48,4,691,1,"Reward1","congruent",1,"YA","baseline"
"1009",12,576,6,49,3,800,1,"Reward4","incongruent",0,"YA","baseline"
"1010",12,576,6,50,4,629,1,"Reward2","congruent",1,"YA","baseline"
"1011",12,576,6,51,4,683,1,"Reward2","congruent",0,"YA","baseline"
"1012",12,576,6,52,4,649,1,"Reward4","incongruent",1,"YA","baseline"
"1013",12,576,6,53,4,614,1,"Reward2","incongruent",1,"YA","baseline"
"1014",12,576,6,54,3,562,1,"Reward4","congruent",0,"YA","baseline"
"1015",12,576,6,55,3,637,1,"Reward4","congruent",1,"YA","baseline"
"1016",12,576,6,56,4,589,1,"Reward1","congruent",0,"YA","baseline"
"1017",12,576,6,57,4,608,1,"Reward2","congruent",0,"YA","baseline"
"1018",12,576,6,58,3,558,1,"Reward2","incongruent",0,"YA","baseline"
"1019",12,576,6,59,3,806,1,"Reward2","incongruent",1,"YA","baseline"
"1020",12,576,6,60,4,547,1,"Reward1","congruent",0,"YA","baseline"
"1021",12,576,6,61,4,623,1,"Reward2","congruent",1,"YA","baseline"
"1022",12,576,6,62,3,562,1,"Reward4","congruent",0,"YA","baseline"
"1023",12,576,6,63,4,652,1,"Reward4","congruent",0,"YA","baseline"
"1024",12,576,6,64,3,596,1,"Reward2","congruent",0,"YA","baseline"
"1025",12,576,6,65,4,661,1,"Reward1","congruent",1,"YA","baseline"
"1026",12,576,6,66,3,544,1,"Reward1","congruent",0,"YA","baseline"
"1027",12,576,6,67,4,664,1,"Reward4","congruent",0,"YA","baseline"
"1028",12,576,6,68,4,714,1,"Reward2","incongruent",1,"YA","baseline"
"1029",12,576,6,69,4,704,1,"Reward4","incongruent",0,"YA","baseline"
"1030",12,576,6,70,4,625,1,"Reward1","congruent",1,"YA","baseline"
"1031",12,576,6,71,4,626,1,"Reward1","incongruent",1,"YA","baseline"
"1032",12,576,6,72,3,753,1,"Reward2","incongruent",0,"YA","baseline"
"1033",12,576,6,73,4,645,1,"Reward1","congruent",0,"YA","baseline"
"1034",12,576,6,74,4,692,1,"Reward2","incongruent",0,"YA","baseline"
"1035",12,576,6,75,3,664,1,"Reward2","congruent",1,"YA","baseline"
"1036",12,576,6,76,3,901,0,"Reward2","incongruent",1,"YA","baseline"
"1037",12,576,6,77,3,713,1,"Reward1","congruent",0,"YA","baseline"
"1038",12,576,6,78,3,629,1,"Reward1","congruent",0,"YA","baseline"
"1039",12,576,6,79,3,618,1,"Reward4","congruent",1,"YA","baseline"
"1040",12,576,6,80,3,630,1,"Reward2","incongruent",1,"YA","baseline"
"1041",12,576,6,81,4,565,1,"Reward2","incongruent",0,"YA","baseline"
"1042",12,576,6,82,4,664,1,"Reward2","congruent",1,"YA","baseline"
"1043",12,576,6,83,4,578,1,"Reward1","incongruent",0,"YA","baseline"
"1044",12,576,6,84,4,603,1,"Reward1","incongruent",1,"YA","baseline"
"1045",12,576,6,85,4,578,1,"Reward2","incongruent",1,"YA","baseline"
"1046",12,576,6,86,3,616,1,"Reward4","incongruent",0,"YA","baseline"
"1047",12,576,6,87,3,648,1,"Reward2","congruent",0,"YA","baseline"
"1048",12,576,6,88,3,636,1,"Reward1","incongruent",1,"YA","baseline"
"1049",12,576,6,89,3,780,1,"Reward1","congruent",1,"YA","baseline"
"1050",12,576,6,90,3,757,0,"Reward4","congruent",1,"YA","baseline"
"1051",12,576,6,91,4,570,1,"Reward4","incongruent",1,"YA","baseline"
"1052",12,576,6,92,4,650,1,"Reward2","congruent",1,"YA","baseline"
"1053",12,576,6,93,4,556,1,"Reward1","incongruent",0,"YA","baseline"
"1054",12,576,6,94,3,513,1,"Reward4","incongruent",0,"YA","baseline"
"1055",12,576,6,95,3,574,1,"Reward1","incongruent",0,"YA","baseline"
"1056",12,576,6,96,3,542,1,"Reward4","incongruent",1,"YA","baseline"
"1057",13,772,6,1,4,982,1,"Reward4","congruent",0,"YA","baseline"
"1058",13,772,6,2,4,713,1,"Reward2","incongruent",1,"YA","baseline"
"1059",13,772,6,3,4,748,1,"Reward1","congruent",1,"YA","baseline"
"1060",13,772,6,4,3,609,1,"Reward1","incongruent",1,"YA","baseline"
"1061",13,772,6,5,3,1338,1,"Reward4","congruent",1,"YA","baseline"
"1062",13,772,6,6,3,798,1,"Reward2","congruent",0,"YA","baseline"
"1063",13,772,6,7,4,883,1,"Reward1","congruent",1,"YA","baseline"
"1064",13,772,6,8,4,1147,1,"Reward4","incongruent",1,"YA","baseline"
"1065",13,772,6,9,4,1469,1,"Reward1","incongruent",0,"YA","baseline"
"1066",13,772,6,10,4,869,1,"Reward4","incongruent",1,"YA","baseline"
"1067",13,772,6,11,4,596,1,"Reward1","congruent",0,"YA","baseline"
"1068",13,772,6,12,3,1023,1,"Reward2","congruent",1,"YA","baseline"
"1069",13,772,6,13,4,804,1,"Reward1","congruent",0,"YA","baseline"
"1070",13,772,6,14,3,1195,1,"Reward1","congruent",0,"YA","baseline"
"1071",13,772,6,15,4,702,1,"Reward2","congruent",0,"YA","baseline"
"1072",13,772,6,16,4,829,1,"Reward2","incongruent",0,"YA","baseline"
"1073",13,772,6,17,3,786,1,"Reward4","incongruent",0,"YA","baseline"
"1074",13,772,6,18,3,927,1,"Reward4","incongruent",1,"YA","baseline"
"1075",13,772,6,19,3,736,1,"Reward1","congruent",1,"YA","baseline"
"1076",13,772,6,20,3,1068,1,"Reward4","congruent",0,"YA","baseline"
"1077",13,772,6,21,3,1045,1,"Reward1","congruent",0,"YA","baseline"
"1078",13,772,6,22,4,995,1,"Reward4","incongruent",0,"YA","baseline"
"1079",13,772,6,23,4,1699,1,"Reward2","congruent",1,"YA","baseline"
"1080",13,772,6,24,3,628,1,"Reward4","incongruent",0,"YA","baseline"
"1081",13,772,6,25,3,1135,1,"Reward1","congruent",0,"YA","baseline"
"1082",13,772,6,26,4,1800,1,"Reward4","incongruent",0,"YA","baseline"
"1083",13,772,6,27,3,647,1,"Reward1","incongruent",1,"YA","baseline"
"1084",13,772,6,28,4,841,1,"Reward4","congruent",0,"YA","baseline"
"1085",13,772,6,29,3,830,1,"Reward2","incongruent",0,"YA","baseline"
"1086",13,772,6,30,4,700,1,"Reward4","congruent",1,"YA","baseline"
"1087",13,772,6,31,4,981,1,"Reward2","incongruent",0,"YA","baseline"
"1088",13,772,6,32,4,1531,0,"Reward2","incongruent",1,"YA","baseline"
"1089",13,772,6,33,4,673,1,"Reward1","incongruent",1,"YA","baseline"
"1090",13,772,6,34,4,1294,1,"Reward4","incongruent",1,"YA","baseline"
"1091",13,772,6,35,3,1097,1,"Reward4","congruent",1,"YA","baseline"
"1092",13,772,6,36,3,782,1,"Reward4","congruent",0,"YA","baseline"
"1093",13,772,6,37,4,854,1,"Reward4","congruent",1,"YA","baseline"
"1094",13,772,6,38,4,553,1,"Reward1","incongruent",1,"YA","baseline"
"1095",13,772,6,39,3,1153,1,"Reward1","congruent",1,"YA","baseline"
"1096",13,772,6,40,3,941,1,"Reward2","congruent",0,"YA","baseline"
"1097",13,772,6,41,4,911,1,"Reward2","incongruent",1,"YA","baseline"
"1098",13,772,6,42,3,881,1,"Reward2","incongruent",0,"YA","baseline"
"1099",13,772,6,43,4,1097,1,"Reward1","congruent",1,"YA","baseline"
"1100",13,772,6,44,4,851,1,"Reward4","congruent",1,"YA","baseline"
"1101",13,772,6,45,4,1547,0,"Reward4","incongruent",1,"YA","baseline"
"1102",13,772,6,46,4,772,1,"Reward2","congruent",0,"YA","baseline"
"1103",13,772,6,47,3,664,1,"Reward1","incongruent",0,"YA","baseline"
"1104",13,772,6,48,3,784,1,"Reward1","incongruent",1,"YA","baseline"
"1105",13,772,6,49,4,859,1,"Reward4","congruent",0,"YA","baseline"
"1106",13,772,6,50,4,928,1,"Reward2","incongruent",1,"YA","baseline"
"1107",13,772,6,51,4,860,1,"Reward2","incongruent",0,"YA","baseline"
"1108",13,772,6,52,3,1366,1,"Reward4","congruent",1,"YA","baseline"
"1109",13,772,6,53,4,1087,1,"Reward2","congruent",1,"YA","baseline"
"1110",13,772,6,54,3,727,1,"Reward4","incongruent",0,"YA","baseline"
"1111",13,772,6,55,4,950,1,"Reward4","incongruent",1,"YA","baseline"
"1112",13,772,6,56,3,833,1,"Reward1","incongruent",0,"YA","baseline"
"1113",13,772,6,57,3,991,1,"Reward2","incongruent",0,"YA","baseline"
"1114",13,772,6,58,4,677,1,"Reward2","congruent",0,"YA","baseline"
"1115",13,772,6,59,3,726,1,"Reward2","congruent",1,"YA","baseline"
"1116",13,772,6,60,4,544,1,"Reward1","incongruent",0,"YA","baseline"
"1117",13,772,6,61,3,879,1,"Reward2","incongruent",1,"YA","baseline"
"1118",13,772,6,62,4,669,1,"Reward4","incongruent",0,"YA","baseline"
"1119",13,772,6,63,3,697,1,"Reward4","incongruent",0,"YA","baseline"
"1120",13,772,6,64,4,627,1,"Reward2","incongruent",0,"YA","baseline"
"1121",13,772,6,65,4,698,1,"Reward1","incongruent",1,"YA","baseline"
"1122",13,772,6,66,3,694,1,"Reward1","incongruent",0,"YA","baseline"
"1123",13,772,6,67,3,1463,0,"Reward4","incongruent",0,"YA","baseline"
"1124",13,772,6,68,3,1033,1,"Reward2","congruent",1,"YA","baseline"
"1125",13,772,6,69,3,1240,1,"Reward4","congruent",0,"YA","baseline"
"1126",13,772,6,70,4,920,1,"Reward1","incongruent",1,"YA","baseline"
"1127",13,772,6,71,3,1317,1,"Reward1","congruent",1,"YA","baseline"
"1128",13,772,6,72,4,616,1,"Reward2","congruent",0,"YA","baseline"
"1129",13,772,6,73,3,778,1,"Reward1","incongruent",0,"YA","baseline"
"1130",13,772,6,74,3,1015,1,"Reward2","congruent",0,"YA","baseline"
"1131",13,772,6,75,3,1128,1,"Reward2","incongruent",1,"YA","baseline"
"1132",13,772,6,76,3,708,1,"Reward2","congruent",1,"YA","baseline"
"1133",13,772,6,77,4,1047,1,"Reward1","incongruent",0,"YA","baseline"
"1134",13,772,6,78,4,611,1,"Reward1","incongruent",0,"YA","baseline"
"1135",13,772,6,79,3,1209,1,"Reward4","incongruent",1,"YA","baseline"
"1136",13,772,6,80,4,656,1,"Reward2","congruent",1,"YA","baseline"
"1137",13,772,6,81,3,1474,1,"Reward2","congruent",0,"YA","baseline"
"1138",13,772,6,82,4,1123,1,"Reward2","incongruent",1,"YA","baseline"
"1139",13,772,6,83,4,1121,1,"Reward1","congruent",0,"YA","baseline"
"1140",13,772,6,84,3,906,1,"Reward1","congruent",1,"YA","baseline"
"1141",13,772,6,85,4,849,1,"Reward2","congruent",1,"YA","baseline"
"1142",13,772,6,86,3,1969,1,"Reward4","congruent",0,"YA","baseline"
"1143",13,772,6,87,NA,0,0,"Reward2","incongruent",0,"YA","baseline"
"1144",13,772,6,88,4,1030,1,"Reward1","congruent",1,"YA","baseline"
"1145",13,772,6,89,NA,0,0,"Reward1","incongruent",1,"YA","baseline"
"1146",13,772,6,90,3,682,1,"Reward4","incongruent",1,"YA","baseline"
"1147",13,772,6,91,4,862,1,"Reward4","congruent",1,"YA","baseline"
"1148",13,772,6,92,3,1292,1,"Reward2","incongruent",1,"YA","baseline"
"1149",13,772,6,93,3,1075,1,"Reward1","congruent",0,"YA","baseline"
"1150",13,772,6,94,4,710,1,"Reward4","congruent",0,"YA","baseline"
"1151",13,772,6,95,4,518,1,"Reward1","congruent",0,"YA","baseline"
"1152",13,772,6,96,3,975,1,"Reward4","congruent",1,"YA","baseline"
"1153",14,441,6,1,3,1571,1,"Reward4","congruent",0,"YA","baseline"
"1154",14,441,6,2,3,542,1,"Reward2","incongruent",1,"YA","baseline"
"1155",14,441,6,3,3,370,1,"Reward1","congruent",1,"YA","baseline"
"1156",14,441,6,4,4,442,1,"Reward1","incongruent",1,"YA","baseline"
"1157",14,441,6,5,4,426,1,"Reward4","congruent",1,"YA","baseline"
"1158",14,441,6,6,4,467,1,"Reward2","congruent",0,"YA","baseline"
"1159",14,441,6,7,3,606,1,"Reward1","congruent",1,"YA","baseline"
"1160",14,441,6,8,3,370,1,"Reward4","incongruent",1,"YA","baseline"
"1161",14,441,6,9,3,382,1,"Reward1","incongruent",0,"YA","baseline"
"1162",14,441,6,10,3,905,1,"Reward4","incongruent",1,"YA","baseline"
"1163",14,441,6,11,3,444,1,"Reward1","congruent",0,"YA","baseline"
"1164",14,441,6,12,4,428,1,"Reward2","congruent",1,"YA","baseline"
"1165",14,441,6,13,3,376,1,"Reward1","congruent",0,"YA","baseline"
"1166",14,441,6,14,4,416,1,"Reward1","congruent",0,"YA","baseline"
"1167",14,441,6,15,3,440,1,"Reward2","congruent",0,"YA","baseline"
"1168",14,441,6,16,3,407,1,"Reward2","incongruent",0,"YA","baseline"
"1169",14,441,6,17,4,351,1,"Reward4","incongruent",0,"YA","baseline"
"1170",14,441,6,18,4,387,1,"Reward4","incongruent",1,"YA","baseline"
"1171",14,441,6,19,4,429,1,"Reward1","congruent",1,"YA","baseline"
"1172",14,441,6,20,4,701,1,"Reward4","congruent",0,"YA","baseline"
"1173",14,441,6,21,4,735,1,"Reward1","congruent",0,"YA","baseline"
"1174",14,441,6,22,3,404,1,"Reward4","incongruent",0,"YA","baseline"
"1175",14,441,6,23,3,551,1,"Reward2","congruent",1,"YA","baseline"
"1176",14,441,6,24,4,503,1,"Reward4","incongruent",0,"YA","baseline"
"1177",14,441,6,25,4,389,1,"Reward1","congruent",0,"YA","baseline"
"1178",14,441,6,26,4,546,0,"Reward4","incongruent",0,"YA","baseline"
"1179",14,441,6,27,4,661,1,"Reward1","incongruent",1,"YA","baseline"
"1180",14,441,6,28,3,537,1,"Reward4","congruent",0,"YA","baseline"
"1181",14,441,6,29,4,534,1,"Reward2","incongruent",0,"YA","baseline"
"1182",14,441,6,30,3,476,1,"Reward4","congruent",1,"YA","baseline"
"1183",14,441,6,31,3,443,1,"Reward2","incongruent",0,"YA","baseline"
"1184",14,441,6,32,4,742,1,"Reward2","incongruent",1,"YA","baseline"
"1185",14,441,6,33,3,620,1,"Reward1","incongruent",1,"YA","baseline"
"1186",14,441,6,34,3,404,1,"Reward4","incongruent",1,"YA","baseline"
"1187",14,441,6,35,4,600,1,"Reward4","congruent",1,"YA","baseline"
"1188",14,441,6,36,4,608,1,"Reward4","congruent",0,"YA","baseline"
"1189",14,441,6,37,3,613,1,"Reward4","congruent",1,"YA","baseline"
"1190",14,441,6,38,3,1293,1,"Reward1","incongruent",1,"YA","baseline"
"1191",14,441,6,39,4,710,1,"Reward1","congruent",1,"YA","baseline"
"1192",14,441,6,40,4,771,1,"Reward2","congruent",0,"YA","baseline"
"1193",14,441,6,41,3,521,1,"Reward2","incongruent",1,"YA","baseline"
"1194",14,441,6,42,4,366,1,"Reward2","incongruent",0,"YA","baseline"
"1195",14,441,6,43,3,534,1,"Reward1","congruent",1,"YA","baseline"
"1196",14,441,6,44,3,667,1,"Reward4","congruent",1,"YA","baseline"
"1197",14,441,6,45,4,565,1,"Reward4","incongruent",1,"YA","baseline"
"1198",14,441,6,46,3,729,1,"Reward2","congruent",0,"YA","baseline"
"1199",14,441,6,47,4,531,1,"Reward1","incongruent",0,"YA","baseline"
"1200",14,441,6,48,4,624,1,"Reward1","incongruent",1,"YA","baseline"
"1201",14,441,6,49,3,1110,1,"Reward4","congruent",0,"YA","baseline"
"1202",14,441,6,50,3,475,1,"Reward2","incongruent",1,"YA","baseline"
"1203",14,441,6,51,4,604,0,"Reward2","incongruent",0,"YA","baseline"
"1204",14,441,6,52,4,658,1,"Reward4","congruent",1,"YA","baseline"
"1205",14,441,6,53,3,411,1,"Reward2","congruent",1,"YA","baseline"
"1206",14,441,6,54,4,631,1,"Reward4","incongruent",0,"YA","baseline"
"1207",14,441,6,55,3,521,1,"Reward4","incongruent",1,"YA","baseline"
"1208",14,441,6,56,4,545,1,"Reward1","incongruent",0,"YA","baseline"
"1209",14,441,6,57,4,607,1,"Reward2","incongruent",0,"YA","baseline"
"1210",14,441,6,58,3,566,1,"Reward2","congruent",0,"YA","baseline"
"1211",14,441,6,59,4,487,1,"Reward2","congruent",1,"YA","baseline"
"1212",14,441,6,60,3,423,1,"Reward1","incongruent",0,"YA","baseline"
"1213",14,441,6,61,4,740,1,"Reward2","incongruent",1,"YA","baseline"
"1214",14,441,6,62,3,452,1,"Reward4","incongruent",0,"YA","baseline"
"1215",14,441,6,63,4,440,1,"Reward4","incongruent",0,"YA","baseline"
"1216",14,441,6,64,3,419,1,"Reward2","incongruent",0,"YA","baseline"
"1217",14,441,6,65,3,406,1,"Reward1","incongruent",1,"YA","baseline"
"1218",14,441,6,66,4,477,1,"Reward1","incongruent",0,"YA","baseline"
"1219",14,441,6,67,3,527,1,"Reward4","incongruent",0,"YA","baseline"
"1220",14,441,6,68,4,497,1,"Reward2","congruent",1,"YA","baseline"
"1221",14,441,6,69,4,1191,1,"Reward4","congruent",0,"YA","baseline"
"1222",14,441,6,70,3,388,1,"Reward1","incongruent",1,"YA","baseline"
"1223",14,441,6,71,4,1031,1,"Reward1","congruent",1,"YA","baseline"
"1224",14,441,6,72,3,409,1,"Reward2","congruent",0,"YA","baseline"
"1225",14,441,6,73,4,570,1,"Reward1","incongruent",0,"YA","baseline"
"1226",14,441,6,74,4,390,1,"Reward2","congruent",0,"YA","baseline"
"1227",14,441,6,75,4,466,1,"Reward2","incongruent",1,"YA","baseline"
"1228",14,441,6,76,4,665,1,"Reward2","congruent",1,"YA","baseline"
"1229",14,441,6,77,3,611,1,"Reward1","incongruent",0,"YA","baseline"
"1230",14,441,6,78,3,552,1,"Reward1","incongruent",0,"YA","baseline"
"1231",14,441,6,79,4,448,1,"Reward4","incongruent",1,"YA","baseline"
"1232",14,441,6,80,3,518,1,"Reward2","congruent",1,"YA","baseline"
"1233",14,441,6,81,4,1069,1,"Reward2","congruent",0,"YA","baseline"
"1234",14,441,6,82,3,363,1,"Reward2","incongruent",1,"YA","baseline"
"1235",14,441,6,83,3,602,1,"Reward1","congruent",0,"YA","baseline"
"1236",14,441,6,84,4,612,1,"Reward1","congruent",1,"YA","baseline"
"1237",14,441,6,85,3,391,1,"Reward2","congruent",1,"YA","baseline"
"1238",14,441,6,86,4,441,1,"Reward4","congruent",0,"YA","baseline"
"1239",14,441,6,87,4,456,1,"Reward2","incongruent",0,"YA","baseline"
"1240",14,441,6,88,3,966,1,"Reward1","congruent",1,"YA","baseline"
"1241",14,441,6,89,4,511,1,"Reward1","incongruent",1,"YA","baseline"
"1242",14,441,6,90,4,1821,1,"Reward4","incongruent",1,"YA","baseline"
"1243",14,441,6,91,3,384,1,"Reward4","congruent",1,"YA","baseline"
"1244",14,441,6,92,4,653,1,"Reward2","incongruent",1,"YA","baseline"
"1245",14,441,6,93,4,579,1,"Reward1","congruent",0,"YA","baseline"
"1246",14,441,6,94,3,460,1,"Reward4","congruent",0,"YA","baseline"
"1247",14,441,6,95,3,740,1,"Reward1","congruent",0,"YA","baseline"
"1248",14,441,6,96,4,381,1,"Reward4","congruent",1,"YA","baseline"
"1249",15,488,6,1,3,721,1,"Reward4","incongruent",0,"YA","baseline"
"1250",15,488,6,2,4,488,1,"Reward2","congruent",1,"YA","baseline"
"1251",15,488,6,3,3,506,1,"Reward1","incongruent",1,"YA","baseline"
"1252",15,488,6,4,3,486,1,"Reward1","congruent",1,"YA","baseline"
"1253",15,488,6,5,4,915,1,"Reward4","incongruent",1,"YA","baseline"
"1254",15,488,6,6,4,830,1,"Reward2","incongruent",0,"YA","baseline"
"1255",15,488,6,7,4,645,1,"Reward1","incongruent",1,"YA","baseline"
"1256",15,488,6,8,3,580,1,"Reward4","congruent",1,"YA","baseline"
"1257",15,488,6,9,3,726,1,"Reward1","congruent",0,"YA","baseline"
"1258",15,488,6,10,4,590,1,"Reward4","congruent",1,"YA","baseline"
"1259",15,488,6,11,4,875,1,"Reward1","incongruent",0,"YA","baseline"
"1260",15,488,6,12,4,426,1,"Reward2","incongruent",1,"YA","baseline"
"1261",15,488,6,13,3,1268,1,"Reward1","incongruent",0,"YA","baseline"
"1262",15,488,6,14,4,455,1,"Reward1","incongruent",0,"YA","baseline"
"1263",15,488,6,15,3,464,1,"Reward2","incongruent",0,"YA","baseline"
"1264",15,488,6,16,3,525,1,"Reward2","congruent",0,"YA","baseline"
"1265",15,488,6,17,4,523,1,"Reward4","congruent",0,"YA","baseline"
"1266",15,488,6,18,3,491,1,"Reward4","congruent",1,"YA","baseline"
"1267",15,488,6,19,4,601,1,"Reward1","incongruent",1,"YA","baseline"
"1268",15,488,6,20,4,458,1,"Reward4","incongruent",0,"YA","baseline"
"1269",15,488,6,21,4,1181,1,"Reward1","incongruent",0,"YA","baseline"
"1270",15,488,6,22,3,528,1,"Reward4","congruent",0,"YA","baseline"
"1271",15,488,6,23,4,431,1,"Reward2","incongruent",1,"YA","baseline"
"1272",15,488,6,24,3,553,1,"Reward4","congruent",0,"YA","baseline"
"1273",15,488,6,25,3,495,1,"Reward1","incongruent",0,"YA","baseline"
"1274",15,488,6,26,4,1062,1,"Reward4","congruent",0,"YA","baseline"
"1275",15,488,6,27,4,712,1,"Reward1","congruent",1,"YA","baseline"
"1276",15,488,6,28,3,745,1,"Reward4","incongruent",0,"YA","baseline"
"1277",15,488,6,29,4,986,1,"Reward2","congruent",0,"YA","baseline"
"1278",15,488,6,30,4,474,1,"Reward4","incongruent",1,"YA","baseline"
"1279",15,488,6,31,4,470,1,"Reward2","congruent",0,"YA","baseline"
"1280",15,488,6,32,4,419,1,"Reward2","congruent",1,"YA","baseline"
"1281",15,488,6,33,4,412,1,"Reward1","congruent",1,"YA","baseline"
"1282",15,488,6,34,3,489,1,"Reward4","congruent",1,"YA","baseline"
"1283",15,488,6,35,3,458,1,"Reward4","incongruent",1,"YA","baseline"
"1284",15,488,6,36,3,557,1,"Reward4","incongruent",0,"YA","baseline"
"1285",15,488,6,37,3,405,1,"Reward4","incongruent",1,"YA","baseline"
"1286",15,488,6,38,4,1010,1,"Reward1","congruent",1,"YA","baseline"
"1287",15,488,6,39,3,554,0,"Reward1","incongruent",1,"YA","baseline"
"1288",15,488,6,40,4,563,1,"Reward2","incongruent",0,"YA","baseline"
"1289",15,488,6,41,4,481,1,"Reward2","congruent",1,"YA","baseline"
"1290",15,488,6,42,3,629,1,"Reward2","congruent",0,"YA","baseline"
"1291",15,488,6,43,3,336,1,"Reward1","incongruent",1,"YA","baseline"
"1292",15,488,6,44,4,491,1,"Reward4","incongruent",1,"YA","baseline"
"1293",15,488,6,45,4,493,1,"Reward4","congruent",1,"YA","baseline"
"1294",15,488,6,46,3,374,1,"Reward2","incongruent",0,"YA","baseline"
"1295",15,488,6,47,4,387,1,"Reward1","congruent",0,"YA","baseline"
"1296",15,488,6,48,3,1141,1,"Reward1","congruent",1,"YA","baseline"
"1297",15,488,6,49,3,1309,0,"Reward4","incongruent",0,"YA","baseline"
"1298",15,488,6,50,3,439,1,"Reward2","congruent",1,"YA","baseline"
"1299",15,488,6,51,3,481,1,"Reward2","congruent",0,"YA","baseline"
"1300",15,488,6,52,3,751,1,"Reward4","incongruent",1,"YA","baseline"
"1301",15,488,6,53,3,750,1,"Reward2","incongruent",1,"YA","baseline"
"1302",15,488,6,54,3,620,0,"Reward4","congruent",0,"YA","baseline"
"1303",15,488,6,55,4,714,1,"Reward4","congruent",1,"YA","baseline"
"1304",15,488,6,56,3,460,1,"Reward1","congruent",0,"YA","baseline"
"1305",15,488,6,57,3,840,1,"Reward2","congruent",0,"YA","baseline"
"1306",15,488,6,58,4,512,1,"Reward2","incongruent",0,"YA","baseline"
"1307",15,488,6,59,3,638,0,"Reward2","incongruent",1,"YA","baseline"
"1308",15,488,6,60,3,501,1,"Reward1","congruent",0,"YA","baseline"
"1309",15,488,6,61,3,540,1,"Reward2","congruent",1,"YA","baseline"
"1310",15,488,6,62,4,451,1,"Reward4","congruent",0,"YA","baseline"
"1311",15,488,6,63,3,484,1,"Reward4","congruent",0,"YA","baseline"
"1312",15,488,6,64,4,615,1,"Reward2","congruent",0,"YA","baseline"
"1313",15,488,6,65,3,1166,1,"Reward1","congruent",1,"YA","baseline"
"1314",15,488,6,66,4,450,1,"Reward1","congruent",0,"YA","baseline"
"1315",15,488,6,67,3,735,1,"Reward4","congruent",0,"YA","baseline"
"1316",15,488,6,68,3,973,1,"Reward2","incongruent",1,"YA","baseline"
"1317",15,488,6,69,3,453,1,"Reward4","incongruent",0,"YA","baseline"
"1318",15,488,6,70,3,551,1,"Reward1","congruent",1,"YA","baseline"
"1319",15,488,6,71,4,557,0,"Reward1","incongruent",1,"YA","baseline"
"1320",15,488,6,72,4,1061,1,"Reward2","incongruent",0,"YA","baseline"
"1321",15,488,6,73,3,709,1,"Reward1","congruent",0,"YA","baseline"
"1322",15,488,6,74,3,506,1,"Reward2","incongruent",0,"YA","baseline"
"1323",15,488,6,75,4,1067,1,"Reward2","congruent",1,"YA","baseline"
"1324",15,488,6,76,3,418,1,"Reward2","incongruent",1,"YA","baseline"
"1325",15,488,6,77,4,1049,1,"Reward1","congruent",0,"YA","baseline"
"1326",15,488,6,78,4,669,1,"Reward1","congruent",0,"YA","baseline"
"1327",15,488,6,79,4,590,1,"Reward4","congruent",1,"YA","baseline"
"1328",15,488,6,80,4,663,1,"Reward2","incongruent",1,"YA","baseline"
"1329",15,488,6,81,3,795,1,"Reward2","incongruent",0,"YA","baseline"
"1330",15,488,6,82,3,1058,1,"Reward2","congruent",1,"YA","baseline"
"1331",15,488,6,83,3,461,1,"Reward1","incongruent",0,"YA","baseline"
"1332",15,488,6,84,3,421,1,"Reward1","incongruent",1,"YA","baseline"
"1333",15,488,6,85,3,800,1,"Reward2","incongruent",1,"YA","baseline"
"1334",15,488,6,86,4,583,1,"Reward4","incongruent",0,"YA","baseline"
"1335",15,488,6,87,4,505,1,"Reward2","congruent",0,"YA","baseline"
"1336",15,488,6,88,4,526,1,"Reward1","incongruent",1,"YA","baseline"
"1337",15,488,6,89,4,1447,1,"Reward1","congruent",1,"YA","baseline"
"1338",15,488,6,90,3,489,1,"Reward4","congruent",1,"YA","baseline"
"1339",15,488,6,91,3,518,1,"Reward4","incongruent",1,"YA","baseline"
"1340",15,488,6,92,3,468,1,"Reward2","congruent",1,"YA","baseline"
"1341",15,488,6,93,3,541,1,"Reward1","incongruent",0,"YA","baseline"
"1342",15,488,6,94,4,541,1,"Reward4","incongruent",0,"YA","baseline"
"1343",15,488,6,95,4,992,1,"Reward1","incongruent",0,"YA","baseline"
"1344",15,488,6,96,4,471,1,"Reward4","incongruent",1,"YA","baseline"
"1345",16,516,6,1,4,541,1,"Reward4","incongruent",0,"YA","baseline"
"1346",16,516,6,2,3,627,1,"Reward2","congruent",1,"YA","baseline"
"1347",16,516,6,3,3,509,0,"Reward1","incongruent",1,"YA","baseline"
"1348",16,516,6,4,4,775,1,"Reward1","congruent",1,"YA","baseline"
"1349",16,516,6,5,3,632,1,"Reward4","incongruent",1,"YA","baseline"
"1350",16,516,6,6,3,633,1,"Reward2","incongruent",0,"YA","baseline"
"1351",16,516,6,7,3,451,1,"Reward1","incongruent",1,"YA","baseline"
"1352",16,516,6,8,4,457,1,"Reward4","congruent",1,"YA","baseline"
"1353",16,516,6,9,4,888,1,"Reward1","congruent",0,"YA","baseline"
"1354",16,516,6,10,3,495,1,"Reward4","congruent",1,"YA","baseline"
"1355",16,516,6,11,3,1037,1,"Reward1","incongruent",0,"YA","baseline"
"1356",16,516,6,12,3,987,1,"Reward2","incongruent",1,"YA","baseline"
"1357",16,516,6,13,4,561,1,"Reward1","incongruent",0,"YA","baseline"
"1358",16,516,6,14,3,604,1,"Reward1","incongruent",0,"YA","baseline"
"1359",16,516,6,15,4,511,1,"Reward2","incongruent",0,"YA","baseline"
"1360",16,516,6,16,4,544,1,"Reward2","congruent",0,"YA","baseline"
"1361",16,516,6,17,3,403,1,"Reward4","congruent",0,"YA","baseline"
"1362",16,516,6,18,4,502,1,"Reward4","congruent",1,"YA","baseline"
"1363",16,516,6,19,3,435,1,"Reward1","incongruent",1,"YA","baseline"
"1364",16,516,6,20,3,1553,1,"Reward4","incongruent",0,"YA","baseline"
"1365",16,516,6,21,3,1122,1,"Reward1","incongruent",0,"YA","baseline"
"1366",16,516,6,22,4,728,1,"Reward4","congruent",0,"YA","baseline"
"1367",16,516,6,23,3,476,1,"Reward2","incongruent",1,"YA","baseline"
"1368",16,516,6,24,4,347,1,"Reward4","congruent",0,"YA","baseline"
"1369",16,516,6,25,4,493,1,"Reward1","incongruent",0,"YA","baseline"
"1370",16,516,6,26,3,452,1,"Reward4","congruent",0,"YA","baseline"
"1371",16,516,6,27,3,1204,1,"Reward1","congruent",1,"YA","baseline"
"1372",16,516,6,28,4,624,1,"Reward4","incongruent",0,"YA","baseline"
"1373",16,516,6,29,3,566,1,"Reward2","congruent",0,"YA","baseline"
"1374",16,516,6,30,3,490,1,"Reward4","incongruent",1,"YA","baseline"
"1375",16,516,6,31,3,549,1,"Reward2","congruent",0,"YA","baseline"
"1376",16,516,6,32,3,691,1,"Reward2","congruent",1,"YA","baseline"
"1377",16,516,6,33,3,688,1,"Reward1","congruent",1,"YA","baseline"
"1378",16,516,6,34,4,925,1,"Reward4","congruent",1,"YA","baseline"
"1379",16,516,6,35,3,658,0,"Reward4","incongruent",1,"YA","baseline"
"1380",16,516,6,36,4,454,1,"Reward4","incongruent",0,"YA","baseline"
"1381",16,516,6,37,4,966,1,"Reward4","incongruent",1,"YA","baseline"
"1382",16,516,6,38,3,502,1,"Reward1","congruent",1,"YA","baseline"
"1383",16,516,6,39,3,489,1,"Reward1","incongruent",1,"YA","baseline"
"1384",16,516,6,40,3,516,1,"Reward2","incongruent",0,"YA","baseline"
"1385",16,516,6,41,3,601,1,"Reward2","congruent",1,"YA","baseline"
"1386",16,516,6,42,4,398,1,"Reward2","congruent",0,"YA","baseline"
"1387",16,516,6,43,4,475,1,"Reward1","incongruent",1,"YA","baseline"
"1388",16,516,6,44,3,1027,1,"Reward4","incongruent",1,"YA","baseline"
"1389",16,516,6,45,3,903,1,"Reward4","congruent",1,"YA","baseline"
"1390",16,516,6,46,4,616,1,"Reward2","incongruent",0,"YA","baseline"
"1391",16,516,6,47,3,533,1,"Reward1","congruent",0,"YA","baseline"
"1392",16,516,6,48,4,504,1,"Reward1","congruent",1,"YA","baseline"
"1393",16,516,6,49,3,371,1,"Reward4","incongruent",0,"YA","baseline"
"1394",16,516,6,50,4,568,1,"Reward2","congruent",1,"YA","baseline"
"1395",16,516,6,51,3,540,0,"Reward2","congruent",0,"YA","baseline"
"1396",16,516,6,52,4,606,1,"Reward4","incongruent",1,"YA","baseline"
"1397",16,516,6,53,4,739,1,"Reward2","incongruent",1,"YA","baseline"
"1398",16,516,6,54,3,479,1,"Reward4","congruent",0,"YA","baseline"
"1399",16,516,6,55,3,548,1,"Reward4","congruent",1,"YA","baseline"
"1400",16,516,6,56,3,557,0,"Reward1","congruent",0,"YA","baseline"
"1401",16,516,6,57,3,691,0,"Reward2","congruent",0,"YA","baseline"
"1402",16,516,6,58,3,822,1,"Reward2","incongruent",0,"YA","baseline"
"1403",16,516,6,59,3,1614,1,"Reward2","incongruent",1,"YA","baseline"
"1404",16,516,6,60,4,1593,1,"Reward1","congruent",0,"YA","baseline"
"1405",16,516,6,61,4,861,1,"Reward2","congruent",1,"YA","baseline"
"1406",16,516,6,62,3,563,1,"Reward4","congruent",0,"YA","baseline"
"1407",16,516,6,63,4,492,1,"Reward4","congruent",0,"YA","baseline"
"1408",16,516,6,64,3,519,1,"Reward2","congruent",0,"YA","baseline"
"1409",16,516,6,65,4,531,1,"Reward1","congruent",1,"YA","baseline"
"1410",16,516,6,66,3,726,1,"Reward1","congruent",0,"YA","baseline"
"1411",16,516,6,67,4,535,1,"Reward4","congruent",0,"YA","baseline"
"1412",16,516,6,68,4,665,1,"Reward2","incongruent",1,"YA","baseline"
"1413",16,516,6,69,4,783,1,"Reward4","incongruent",0,"YA","baseline"
"1414",16,516,6,70,4,720,1,"Reward1","congruent",1,"YA","baseline"
"1415",16,516,6,71,4,753,1,"Reward1","incongruent",1,"YA","baseline"
"1416",16,516,6,72,3,641,1,"Reward2","incongruent",0,"YA","baseline"
"1417",16,516,6,73,4,721,1,"Reward1","congruent",0,"YA","baseline"
"1418",16,516,6,74,4,792,1,"Reward2","incongruent",0,"YA","baseline"
"1419",16,516,6,75,3,645,1,"Reward2","congruent",1,"YA","baseline"
"1420",16,516,6,76,4,371,1,"Reward2","incongruent",1,"YA","baseline"
"1421",16,516,6,77,3,424,1,"Reward1","congruent",0,"YA","baseline"
"1422",16,516,6,78,3,923,1,"Reward1","congruent",0,"YA","baseline"
"1423",16,516,6,79,3,391,1,"Reward4","congruent",1,"YA","baseline"
"1424",16,516,6,80,3,813,1,"Reward2","incongruent",1,"YA","baseline"
"1425",16,516,6,81,4,477,1,"Reward2","incongruent",0,"YA","baseline"
"1426",16,516,6,82,4,582,1,"Reward2","congruent",1,"YA","baseline"
"1427",16,516,6,83,4,643,1,"Reward1","incongruent",0,"YA","baseline"
"1428",16,516,6,84,3,765,0,"Reward1","incongruent",1,"YA","baseline"
"1429",16,516,6,85,4,697,1,"Reward2","incongruent",1,"YA","baseline"
"1430",16,516,6,86,3,767,1,"Reward4","incongruent",0,"YA","baseline"
"1431",16,516,6,87,3,731,1,"Reward2","congruent",0,"YA","baseline"
"1432",16,516,6,88,3,398,1,"Reward1","incongruent",1,"YA","baseline"
"1433",16,516,6,89,3,384,1,"Reward1","congruent",1,"YA","baseline"
"1434",16,516,6,90,3,481,0,"Reward4","congruent",1,"YA","baseline"
"1435",16,516,6,91,4,746,1,"Reward4","incongruent",1,"YA","baseline"
"1436",16,516,6,92,4,657,1,"Reward2","congruent",1,"YA","baseline"
"1437",16,516,6,93,4,645,1,"Reward1","incongruent",0,"YA","baseline"
"1438",16,516,6,94,3,1424,1,"Reward4","incongruent",0,"YA","baseline"
"1439",16,516,6,95,3,771,1,"Reward1","incongruent",0,"YA","baseline"
"1440",16,516,6,96,3,515,1,"Reward4","incongruent",1,"YA","baseline"
"1441",17,454,6,1,4,515,1,"Reward4","congruent",0,"YA","baseline"
"1442",17,454,6,2,4,562,1,"Reward2","incongruent",1,"YA","baseline"
"1443",17,454,6,3,4,518,1,"Reward1","congruent",1,"YA","baseline"
"1444",17,454,6,4,3,395,1,"Reward1","incongruent",1,"YA","baseline"
"1445",17,454,6,5,3,570,1,"Reward4","congruent",1,"YA","baseline"
"1446",17,454,6,6,3,621,1,"Reward2","congruent",0,"YA","baseline"
"1447",17,454,6,7,4,489,1,"Reward1","congruent",1,"YA","baseline"
"1448",17,454,6,8,4,444,1,"Reward4","incongruent",1,"YA","baseline"
"1449",17,454,6,9,4,610,1,"Reward1","incongruent",0,"YA","baseline"
"1450",17,454,6,10,4,474,1,"Reward4","incongruent",1,"YA","baseline"
"1451",17,454,6,11,4,595,1,"Reward1","congruent",0,"YA","baseline"
"1452",17,454,6,12,3,589,1,"Reward2","congruent",1,"YA","baseline"
"1453",17,454,6,13,4,573,1,"Reward1","congruent",0,"YA","baseline"
"1454",17,454,6,14,3,512,1,"Reward1","congruent",0,"YA","baseline"
"1455",17,454,6,15,4,451,1,"Reward2","congruent",0,"YA","baseline"
"1456",17,454,6,16,4,505,1,"Reward2","incongruent",0,"YA","baseline"
"1457",17,454,6,17,3,582,1,"Reward4","incongruent",0,"YA","baseline"
"1458",17,454,6,18,3,537,1,"Reward4","incongruent",1,"YA","baseline"
"1459",17,454,6,19,3,518,1,"Reward1","congruent",1,"YA","baseline"
"1460",17,454,6,20,3,554,1,"Reward4","congruent",0,"YA","baseline"
"1461",17,454,6,21,3,440,1,"Reward1","congruent",0,"YA","baseline"
"1462",17,454,6,22,4,619,1,"Reward4","incongruent",0,"YA","baseline"
"1463",17,454,6,23,4,613,1,"Reward2","congruent",1,"YA","baseline"
"1464",17,454,6,24,3,584,1,"Reward4","incongruent",0,"YA","baseline"
"1465",17,454,6,25,3,557,1,"Reward1","congruent",0,"YA","baseline"
"1466",17,454,6,26,4,629,1,"Reward4","incongruent",0,"YA","baseline"
"1467",17,454,6,27,3,567,1,"Reward1","incongruent",1,"YA","baseline"
"1468",17,454,6,28,4,529,1,"Reward4","congruent",0,"YA","baseline"
"1469",17,454,6,29,3,907,1,"Reward2","incongruent",0,"YA","baseline"
"1470",17,454,6,30,4,672,1,"Reward4","congruent",1,"YA","baseline"
"1471",17,454,6,31,4,540,1,"Reward2","incongruent",0,"YA","baseline"
"1472",17,454,6,32,3,454,1,"Reward2","incongruent",1,"YA","baseline"
"1473",17,454,6,33,4,540,1,"Reward1","incongruent",1,"YA","baseline"
"1474",17,454,6,34,4,419,1,"Reward4","incongruent",1,"YA","baseline"
"1475",17,454,6,35,3,427,1,"Reward4","congruent",1,"YA","baseline"
"1476",17,454,6,36,3,477,1,"Reward4","congruent",0,"YA","baseline"
"1477",17,454,6,37,4,991,1,"Reward4","congruent",1,"YA","baseline"
"1478",17,454,6,38,4,516,1,"Reward1","incongruent",1,"YA","baseline"
"1479",17,454,6,39,3,698,1,"Reward1","congruent",1,"YA","baseline"
"1480",17,454,6,40,3,476,1,"Reward2","congruent",0,"YA","baseline"
"1481",17,454,6,41,4,542,1,"Reward2","incongruent",1,"YA","baseline"
"1482",17,454,6,42,3,378,1,"Reward2","incongruent",0,"YA","baseline"
"1483",17,454,6,43,4,445,1,"Reward1","congruent",1,"YA","baseline"
"1484",17,454,6,44,4,1164,1,"Reward4","congruent",1,"YA","baseline"
"1485",17,454,6,45,3,461,1,"Reward4","incongruent",1,"YA","baseline"
"1486",17,454,6,46,4,623,1,"Reward2","congruent",0,"YA","baseline"
"1487",17,454,6,47,3,922,1,"Reward1","incongruent",0,"YA","baseline"
"1488",17,454,6,48,3,454,1,"Reward1","incongruent",1,"YA","baseline"
"1489",17,454,6,49,3,848,0,"Reward4","congruent",0,"YA","baseline"
"1490",17,454,6,50,4,417,1,"Reward2","incongruent",1,"YA","baseline"
"1491",17,454,6,51,4,426,1,"Reward2","incongruent",0,"YA","baseline"
"1492",17,454,6,52,3,425,1,"Reward4","congruent",1,"YA","baseline"
