,subID,group,block,critRT,Trial,Resp,RT,ACC,rewType,moneyearned,congruent,taskswitch1,1,YA,7,712,1,4,596,1,Reward2,0.02,congruent,02,1,YA,7,712,2,3,479,1,Reward2,0.02,incongruent,03,1,YA,7,712,3,3,568,1,Reward2,0.02,congruent,14,1,YA,7,712,4,4,912,0,Reward2,0,incongruent,05,1,YA,7,712,5,4,440,1,Reward4,0.04,incongruent,06,1,YA,7,712,6,3,754,1,Reward2,0,congruent,17,1,YA,7,712,7,3,631,0,Reward4,0,congruent,08,1,YA,7,712,8,4,724,1,Reward1,0,incongruent,09,1,YA,7,712,9,3,527,1,Reward2,0.02,incongruent,010,1,YA,7,712,10,4,426,1,Reward1,0.01,congruent,111,1,YA,7,712,11,4,525,1,Reward1,0.01,congruent,112,1,YA,7,712,12,4,463,1,Reward2,0.02,incongruent,113,1,YA,7,712,13,4,538,1,Reward1,0.01,congruent,014,1,YA,7,712,14,4,513,1,Reward4,0.04,congruent,015,1,YA,7,712,15,3,559,1,Reward2,0.02,congruent,016,1,YA,7,712,16,3,565,1,Reward4,0.04,incongruent,017,1,YA,7,712,17,3,549,1,Reward2,0.02,incongruent,118,1,YA,7,712,18,3,498,1,Reward4,0.04,incongruent,019,1,YA,7,712,19,3,1175,1,Reward2,0,congruent,020,1,YA,7,712,20,4,574,1,Reward4,0.04,congruent,021,1,YA,7,712,21,3,669,1,Reward1,0.01,congruent,122,1,YA,7,712,22,4,690,1,Reward1,0.01,congruent,023,1,YA,7,712,23,3,590,1,Reward2,0.02,congruent,024,1,YA,7,712,24,3,561,0,Reward4,0,incongruent,125,1,YA,7,712,25,3,521,1,Reward4,0.04,congruent,126,1,YA,7,712,26,4,488,1,Reward2,0.02,congruent,027,1,YA,7,712,27,4,530,1,Reward1,0.01,congruent,128,1,YA,7,712,28,3,581,1,Reward2,0.02,incongruent,129,1,YA,7,712,29,3,597,1,Reward2,0.02,incongruent,030,1,YA,7,712,30,3,485,1,Reward1,0.01,incongruent,031,1,YA,7,712,31,4,586,1,Reward2,0.02,congruent,132,1,YA,7,712,32,4,422,1,Reward1,0.01,incongruent,133,1,YA,7,712,33,4,457,1,Reward4,0.04,congruent,034,1,YA,7,712,34,3,424,1,Reward2,0.02,congruent,135,1,YA,7,712,35,3,556,1,Reward4,0.04,incongruent,136,1,YA,7,712,36,4,745,1,Reward4,0,congruent,137,1,YA,7,712,37,4,545,1,Reward4,0.04,incongruent,138,1,YA,7,712,38,4,609,1,Reward2,0.02,incongruent,039,1,YA,7,712,39,4,365,1,Reward1,0.01,incongruent,040,1,YA,7,712,40,4,404,1,Reward4,0.04,incongruent,041,1,YA,7,712,41,3,476,1,Reward4,0.04,congruent,142,1,YA,7,712,42,4,931,0,Reward1,0,congruent,143,1,YA,7,712,43,3,737,1,Reward1,0,congruent,044,1,YA,7,712,44,3,643,1,Reward1,0.01,incongruent,145,1,YA,7,712,45,4,504,1,Reward2,0.02,incongruent,046,1,YA,7,712,46,3,410,1,Reward4,0.04,congruent,047,1,YA,7,712,47,4,475,1,Reward4,0.04,incongruent,048,1,YA,7,712,48,3,568,1,Reward1,0.01,incongruent,149,1,YA,7,712,49,3,459,1,Reward4,0.04,congruent,050,1,YA,7,712,50,4,600,1,Reward4,0.04,incongruent,151,1,YA,7,712,51,4,501,1,Reward2,0.02,incongruent,152,1,YA,7,712,52,4,560,1,Reward2,0.02,incongruent,053,1,YA,7,712,53,4,554,0,Reward1,0,incongruent,154,1,YA,7,712,54,3,353,1,Reward4,0.04,incongruent,155,1,YA,7,712,55,4,453,1,Reward2,0.02,congruent,156,1,YA,7,712,56,4,392,1,Reward4,0.04,congruent,157,1,YA,7,712,57,3,559,1,Reward1,0.01,congruent,058,1,YA,7,712,58,3,623,1,Reward4,0.04,incongruent,159,1,YA,7,712,59,4,515,1,Reward2,0.02,congruent,160,1,YA,7,712,60,4,803,1,Reward2,0,incongruent,161,1,YA,7,712,61,3,435,1,Reward2,0.02,incongruent,162,1,YA,7,712,62,4,354,1,Reward2,0.02,congruent,063,1,YA,7,712,63,3,638,1,Reward1,0.01,incongruent,064,1,YA,7,712,64,3,686,0,Reward1,0,incongruent,165,1,YA,7,712,65,4,431,1,Reward4,0.04,incongruent,166,1,YA,7,712,66,4,851,1,Reward1,0,incongruent,167,1,YA,7,712,67,4,414,1,Reward1,0.01,congruent,068,1,YA,7,712,68,3,480,1,Reward2,0.02,congruent,169,1,YA,7,712,69,3,967,1,Reward1,0,congruent,170,1,YA,7,712,70,3,497,1,Reward1,0.01,congruent,071,1,YA,7,712,71,3,418,1,Reward2,0.02,congruent,072,1,YA,7,712,72,4,504,1,Reward4,0.04,congruent,173,1,YA,7,712,73,4,1034,1,Reward4,0,congruent,174,1,YA,7,712,74,3,466,1,Reward4,0.04,congruent,175,1,YA,7,712,75,4,1335,0,Reward1,0,congruent,176,1,YA,7,712,76,3,587,1,Reward4,0.04,incongruent,077,1,YA,7,712,77,4,1343,1,Reward2,0,congruent,178,1,YA,7,712,78,3,519,1,Reward4,0.04,congruent,079,1,YA,7,712,79,4,1064,1,Reward1,0,incongruent,080,1,YA,7,712,80,3,526,1,Reward4,0.04,incongruent,181,1,YA,7,712,81,4,619,1,Reward2,0.02,congruent,082,1,YA,7,712,82,3,619,0,Reward1,0,congruent,083,1,YA,7,712,83,3,840,1,Reward1,0,incongruent,084,1,YA,7,712,84,4,617,1,Reward4,0.04,incongruent,085,1,YA,7,712,85,4,810,1,Reward1,0,incongruent,086,1,YA,7,712,86,4,400,1,Reward1,0.01,incongruent,187,1,YA,7,712,87,3,544,1,Reward4,0.04,congruent,188,1,YA,7,712,88,3,727,1,Reward1,0,incongruent,089,1,YA,7,712,89,4,422,1,Reward1,0.01,congruent,190,1,YA,7,712,90,3,583,0,Reward2,0,incongruent,191,1,YA,7,712,91,3,437,1,Reward1,0.01,congruent,092,1,YA,7,712,92,4,425,1,Reward2,0.02,incongruent,093,1,YA,7,712,93,3,500,1,Reward1,0.01,incongruent,194,1,YA,7,712,94,3,505,1,Reward4,0.04,incongruent,095,1,YA,7,712,95,3,450,1,Reward2,0.02,incongruent,196,1,YA,7,712,96,3,665,1,Reward4,0.04,congruent,097,1,YA,8,712,1,4,566,1,Reward2,0.02,incongruent,098,1,YA,8,712,2,3,366,1,Reward1,0.01,congruent,099,1,YA,8,712,3,3,708,1,Reward1,0.01,incongruent,1100,1,YA,8,712,4,3,408,1,Reward4,0.04,congruent,0101,1,YA,8,712,5,3,969,1,Reward2,0,congruent,1102,1,YA,8,712,6,3,421,1,Reward4,0.04,incongruent,1103,1,YA,8,712,7,4,508,1,Reward1,0.01,incongruent,1104,1,YA,8,712,8,3,561,1,Reward4,0.04,incongruent,1105,1,YA,8,712,9,3,519,1,Reward1,0.01,incongruent,1106,1,YA,8,712,10,4,559,1,Reward2,0.02,incongruent,1107,1,YA,8,712,11,3,393,1,Reward4,0.04,congruent,1108,1,YA,8,712,12,4,418,1,Reward4,0.04,incongruent,0109,1,YA,8,712,13,3,406,1,Reward2,0.02,incongruent,0110,1,YA,8,712,14,3,514,1,Reward4,0.04,incongruent,0111,1,YA,8,712,15,4,491,0,Reward1,0,incongruent,0112,1,YA,8,712,16,4,441,1,Reward2,0.02,congruent,0113,1,YA,8,712,17,3,464,1,Reward4,0.04,congruent,1114,1,YA,8,712,18,4,500,1,Reward2,0.02,congruent,1115,1,YA,8,712,19,3,630,1,Reward1,0.01,congruent,1116,1,YA,8,712,20,3,537,1,Reward4,0.04,congruent,0117,1,YA,8,712,21,3,581,1,Reward1,0.01,congruent,0118,1,YA,8,712,22,4,459,1,Reward4,0.04,congruent,1119,1,YA,8,712,23,4,427,1,Reward4,0.04,congruent,0120,1,YA,8,712,24,3,413,1,Reward2,0.02,congruent,1121,1,YA,8,712,25,4,668,1,Reward4,0.04,congruent,0122,1,YA,8,712,26,4,485,1,Reward2,0.02,congruent,1123,1,YA,8,712,27,4,416,1,Reward1,0.01,incongruent,0124,1,YA,8,712,28,4,711,1,Reward2,0.02,congruent,0125,1,YA,8,712,29,3,561,1,Reward2,0.02,congruent,0126,1,YA,8,712,30,3,414,1,Reward2,0.02,incongruent,1127,1,YA,8,712,31,3,444,1,Reward4,0.04,incongruent,1128,1,YA,8,712,32,4,460,1,Reward4,0.04,incongruent,1129,1,YA,8,712,33,3,548,1,Reward2,0.02,incongruent,1130,1,YA,8,712,34,4,647,1,Reward1,0.01,congruent,1131,1,YA,8,712,35,4,381,1,Reward4,0.04,incongruent,0132,1,YA,8,712,36,3,688,1,Reward1,0.01,congruent,1133,1,YA,8,712,37,3,397,1,Reward4,0.04,congruent,0134,1,YA,8,712,38,4,453,0,Reward1,0,incongruent,1135,1,YA,8,712,39,3,405,1,Reward2,0.02,incongruent,0136,1,YA,8,712,40,3,442,1,Reward4,0.04,incongruent,0137,1,YA,8,712,41,3,427,1,Reward2,0.02,congruent,0138,1,YA,8,712,42,4,455,1,Reward1,0.01,congruent,1139,1,YA,8,712,43,3,354,1,Reward2,0.02,incongruent,1140,1,YA,8,712,44,3,699,0,Reward4,0,incongruent,1141,1,YA,8,712,45,4,520,1,Reward2,0.02,congruent,1142,1,YA,8,712,46,3,922,1,Reward1,0,congruent,1143,1,YA,8,712,47,3,391,1,Reward2,0.02,incongruent,0144,1,YA,8,712,48,3,596,1,Reward1,0.01,congruent,0145,1,YA,8,712,49,3,423,1,Reward4,0.04,incongruent,0146,1,YA,8,712,50,3,397,1,Reward4,0.04,congruent,0147,1,YA,8,712,51,4,471,1,Reward1,0.01,congruent,1148,1,YA,8,712,52,4,386,1,Reward1,0.01,incongruent,0149,1,YA,8,712,53,4,428,1,Reward2,0.02,congruent,0150,1,YA,8,712,54,4,806,1,Reward1,0,incongruent,0151,1,YA,8,712,55,3,463,1,Reward2,0.02,incongruent,0152,1,YA,8,712,56,4,561,1,Reward2,0.02,incongruent,1153,1,YA,8,712,57,4,1001,1,Reward1,0,incongruent,0154,1,YA,8,712,58,4,477,1,Reward2,0.02,incongruent,0155,1,YA,8,712,59,3,326,1,Reward4,0.04,congruent,1156,1,YA,8,712,60,4,466,1,Reward1,0.01,congruent,0157,1,YA,8,712,61,3,542,1,Reward2,0.02,incongruent,1158,1,YA,8,712,62,3,520,0,Reward2,0,incongruent,1159,1,YA,8,712,63,4,590,1,Reward2,0.02,incongruent,0160,1,YA,8,712,64,4,333,1,Reward4,0.04,incongruent,0161,1,YA,8,712,65,3,497,1,Reward4,0.04,incongruent,1162,1,YA,8,712,66,4,373,1,Reward4,0.04,incongruent,0163,1,YA,8,712,67,4,556,1,Reward1,0.01,incongruent,1164,1,YA,8,712,68,4,600,1,Reward2,0.02,incongruent,0165,1,YA,8,712,69,4,434,1,Reward1,0.01,congruent,1166,1,YA,8,712,70,4,404,1,Reward2,0.02,congruent,1167,1,YA,8,712,71,4,400,1,Reward4,0.04,congruent,1168,1,YA,8,712,72,4,391,1,Reward4,0.04,incongruent,1169,1,YA,8,712,73,3,480,1,Reward4,0.04,incongruent,0170,1,YA,8,712,74,3,522,1,Reward2,0.02,congruent,1171,1,YA,8,712,75,3,355,0,Reward4,0,congruent,1172,1,YA,8,712,76,3,613,0,Reward2,0,incongruent,1173,1,YA,8,712,77,4,453,1,Reward4,0.04,congruent,0174,1,YA,8,712,78,4,450,1,Reward4,0.04,congruent,1175,1,YA,8,712,79,4,481,1,Reward4,0.04,incongruent,1176,1,YA,8,712,80,3,397,1,Reward1,0.01,congruent,1177,1,YA,8,712,81,3,473,1,Reward4,0.04,congruent,1178,1,YA,8,712,82,4,378,1,Reward1,0.01,congruent,0179,1,YA,8,712,83,4,397,1,Reward1,0.01,congruent,0180,1,YA,8,712,84,3,472,1,Reward2,0.02,congruent,0181,1,YA,8,712,85,3,645,1,Reward1,0.01,incongruent,0182,1,YA,8,712,86,4,709,1,Reward1,0.01,incongruent,1183,1,YA,8,712,87,3,373,1,Reward1,0.01,incongruent,1184,1,YA,8,712,88,3,547,1,Reward2,0.02,congruent,1185,1,YA,8,712,89,4,695,1,Reward1,0.01,congruent,0186,1,YA,8,712,90,3,793,1,Reward1,0,incongruent,0187,1,YA,8,712,91,4,432,1,Reward2,0.02,congruent,0188,1,YA,8,712,92,3,598,1,Reward1,0.01,congruent,0189,1,YA,8,712,93,3,509,1,Reward1,0.01,incongruent,0190,1,YA,8,712,94,3,388,0,Reward4,0,congruent,0191,1,YA,8,712,95,4,712,0,Reward2,0,congruent,0192,1,YA,8,712,96,4,641,1,Reward1,0.01,incongruent,1193,1,YA,9,712,1,4,458,1,Reward1,0.01,incongruent,0194,1,YA,9,712,2,4,867,1,Reward1,0,incongruent,1195,1,YA,9,712,3,4,456,1,Reward1,0.01,congruent,1196,1,YA,9,712,4,4,574,1,Reward1,0.01,congruent,1197,1,YA,9,712,5,4,445,1,Reward2,0.02,incongruent,0198,1,YA,9,712,6,4,761,1,Reward1,0,congruent,0199,1,YA,9,712,7,3,380,1,Reward2,0.02,incongruent,0200,1,YA,9,712,8,4,448,1,Reward4,0.04,congruent,1201,1,YA,9,712,9,3,646,1,Reward2,0.02,incongruent,1202,1,YA,9,712,10,3,518,1,Reward2,0.02,incongruent,0203,1,YA,9,712,11,4,429,1,Reward1,0.01,congruent,0204,1,YA,9,712,12,3,485,1,Reward2,0.02,incongruent,1205,1,YA,9,712,13,4,443,1,Reward4,0.04,congruent,0206,1,YA,9,712,14,4,494,1,Reward2,0.02,congruent,1207,1,YA,9,712,15,3,598,0,Reward1,0,incongruent,1208,1,YA,9,712,16,4,855,0,Reward1,0,incongruent,0209,1,YA,9,712,17,3,497,1,Reward4,0.04,congruent,0210,1,YA,9,712,18,4,707,0,Reward2,0,incongruent,1211,1,YA,9,712,19,3,399,1,Reward4,0.04,congruent,1212,1,YA,9,712,20,4,468,1,Reward1,0.01,congruent,1213,1,YA,9,712,21,3,456,0,Reward2,0,congruent,1214,1,YA,9,712,22,3,491,1,Reward4,0.04,incongruent,0215,1,YA,9,712,23,3,1192,1,Reward2,0,congruent,1216,1,YA,9,712,24,4,383,1,Reward2,0.02,incongruent,0217,1,YA,9,712,25,3,511,1,Reward1,0.01,incongruent,0218,1,YA,9,712,26,4,448,0,Reward1,0,incongruent,1219,1,YA,9,712,27,3,465,1,Reward4,0.04,incongruent,1220,1,YA,9,712,28,3,449,1,Reward4,0.04,congruent,1221,1,YA,9,712,29,4,350,1,Reward2,0.02,congruent,1222,1,YA,9,712,30,4,454,1,Reward4,0.04,incongruent,0223,1,YA,9,712,31,4,370,1,Reward2,0.02,incongruent,1224,1,YA,9,712,32,3,491,1,Reward2,0.02,incongruent,0225,1,YA,9,712,33,4,350,1,Reward4,0.04,congruent,1226,1,YA,9,712,34,3,496,1,Reward4,0.04,incongruent,1227,1,YA,9,712,35,3,685,1,Reward4,0.04,congruent,1228,1,YA,9,712,36,4,742,0,Reward2,0,congruent,1229,1,YA,9,712,37,4,407,1,Reward4,0.04,incongruent,1230,1,YA,9,712,38,3,888,1,Reward4,0,incongruent,0231,1,YA,9,712,39,3,408,1,Reward4,0.04,incongruent,1232,1,YA,9,712,40,3,486,0,Reward4,0,incongruent,0233,1,YA,9,712,41,3,528,1,Reward2,0.02,congruent,0234,1,YA,9,712,42,3,472,1,Reward1,0.01,congruent,1235,1,YA,9,712,43,3,420,1,Reward4,0.04,congruent,0236,1,YA,9,712,44,3,609,1,Reward2,0.02,congruent,0237,1,YA,9,712,45,3,551,1,Reward1,0.01,incongruent,1238,1,YA,9,712,46,3,482,0,Reward1,0,incongruent,0239,1,YA,9,712,47,3,438,1,Reward2,0.02,congruent,1240,1,YA,9,712,48,4,445,1,Reward1,0.01,incongruent,0241,1,YA,9,712,49,3,363,1,Reward2,0.02,incongruent,1242,1,YA,9,712,50,4,534,0,Reward1,0,congruent,0243,1,YA,9,712,51,4,575,0,Reward4,0,congruent,1244,1,YA,9,712,52,3,455,1,Reward4,0.04,incongruent,0245,1,YA,9,712,53,4,904,1,Reward2,0,incongruent,1246,1,YA,9,712,54,3,881,0,Reward1,0,incongruent,1247,1,YA,9,712,55,4,528,1,Reward1,0.01,congruent,1248,1,YA,9,712,56,4,749,1,Reward1,0,congruent,0249,1,YA,9,712,57,3,468,1,Reward4,0.04,congruent,0250,1,YA,9,712,58,3,552,1,Reward1,0.01,incongruent,1251,1,YA,9,712,59,4,452,1,Reward2,0.02,congruent,1252,1,YA,9,712,60,3,707,0,Reward2,0,incongruent,0253,1,YA,9,712,61,3,494,0,Reward4,0,congruent,1254,1,YA,9,712,62,4,525,1,Reward4,0.04,congruent,0255,1,YA,9,712,63,3,475,1,Reward1,0.01,congruent,1256,1,YA,9,712,64,4,497,1,Reward2,0.02,congruent,0257,1,YA,9,712,65,4,390,1,Reward2,0.02,congruent,0258,1,YA,9,712,66,3,377,1,Reward1,0.01,congruent,1259,1,YA,9,712,67,3,376,1,Reward1,0.01,incongruent,0260,1,YA,9,712,68,3,448,1,Reward2,0.02,congruent,0261,1,YA,9,712,69,4,614,0,Reward2,0,congruent,1262,1,YA,9,712,70,3,509,1,Reward2,0.02,congruent,0263,1,YA,9,712,71,3,577,1,Reward4,0.04,incongruent,0264,1,YA,9,712,72,4,909,1,Reward2,0,incongruent,1265,1,YA,9,712,73,4,492,1,Reward4,0.04,incongruent,1266,1,YA,9,712,74,4,463,1,Reward2,0.02,incongruent,1267,1,YA,9,712,75,4,484,1,Reward4,0.04,incongruent,1268,1,YA,9,712,76,4,545,1,Reward1,0.01,congruent,0269,1,YA,9,712,77,3,512,1,Reward2,0.02,incongruent,0270,1,YA,9,712,78,4,382,1,Reward4,0.04,incongruent,0271,1,YA,9,712,79,4,908,0,Reward1,0,incongruent,1272,1,YA,9,712,80,4,517,1,Reward4,0.04,incongruent,0273,1,YA,9,712,81,3,500,1,Reward1,0.01,congruent,0274,1,YA,9,712,82,4,339,0,Reward4,0,congruent,0275,1,YA,9,712,83,4,526,1,Reward4,0.04,congruent,0276,1,YA,9,712,84,4,605,1,Reward2,0.02,congruent,0277,1,YA,9,712,85,4,801,1,Reward1,0,incongruent,1278,1,YA,9,712,86,3,668,1,Reward4,0.04,incongruent,1279,1,YA,9,712,87,3,939,1,Reward1,0,congruent,1280,1,YA,9,712,88,4,364,1,Reward4,0.04,congruent,0281,1,YA,9,712,89,4,488,1,Reward2,0.02,incongruent,0282,1,YA,9,712,90,3,459,1,Reward1,0.01,incongruent,0283,1,YA,9,712,91,4,503,1,Reward4,0.04,incongruent,1284,1,YA,9,712,92,4,437,1,Reward2,0.02,congruent,0285,1,YA,9,712,93,4,443,1,Reward1,0.01,incongruent,0286,1,YA,9,712,94,3,411,1,Reward1,0.01,congruent,0287,1,YA,9,712,95,4,488,1,Reward4,0.04,congruent,1288,1,YA,9,712,96,3,531,1,Reward1,0.01,congruent,02881,2,YA,7,617,1,3,659,1,Reward2,0,congruent,02882,2,YA,7,617,2,4,625,1,Reward2,0,incongruent,02883,2,YA,7,617,3,4,586,1,Reward2,0.02,congruent,12884,2,YA,7,617,4,4,589,1,Reward2,0.02,incongruent,02885,2,YA,7,617,5,3,510,1,Reward4,0.04,incongruent,02886,2,YA,7,617,6,4,651,1,Reward2,0,congruent,12887,2,YA,7,617,7,3,1209,1,Reward4,0,congruent,02888,2,YA,7,617,8,4,900,0,Reward1,0,incongruent,02889,2,YA,7,617,9,4,686,1,Reward2,0,incongruent,02890,2,YA,7,617,10,3,750,1,Reward1,0,congruent,12891,2,YA,7,617,11,3,508,1,Reward1,0.01,congruent,12892,2,YA,7,617,12,3,356,1,Reward2,0.02,incongruent,12893,2,YA,7,617,13,4,782,0,Reward1,0,congruent,02894,2,YA,7,617,14,3,375,1,Reward4,0.04,congruent,02895,2,YA,7,617,15,4,514,1,Reward2,0.02,congruent,02896,2,YA,7,617,16,4,390,1,Reward4,0.04,incongruent,02897,2,YA,7,617,17,4,402,1,Reward2,0.02,incongruent,12898,2,YA,7,617,18,3,804,0,Reward4,0,incongruent,02899,2,YA,7,617,19,4,415,1,Reward2,0.02,congruent,02900,2,YA,7,617,20,3,354,1,Reward4,0.04,congruent,02901,2,YA,7,617,21,4,486,1,Reward1,0.01,congruent,12902,2,YA,7,617,22,3,321,1,Reward1,0.01,congruent,02903,2,YA,7,617,23,4,382,1,Reward2,0.02,congruent,02904,2,YA,7,617,24,3,433,1,Reward4,0.04,incongruent,12905,2,YA,7,617,25,4,546,1,Reward4,0.04,congruent,12906,2,YA,7,617,26,3,835,1,Reward2,0,congruent,02907,2,YA,7,617,27,3,369,1,Reward1,0.01,congruent,12908,2,YA,7,617,28,3,712,0,Reward2,0,incongruent,12909,2,YA,7,617,29,4,496,1,Reward2,0.02,incongruent,02910,2,YA,7,617,30,3,636,0,Reward1,0,incongruent,02911,2,YA,7,617,31,3,518,1,Reward2,0.02,congruent,12912,2,YA,7,617,32,3,427,1,Reward1,0.01,incongruent,12913,2,YA,7,617,33,3,376,1,Reward4,0.04,congruent,02914,2,YA,7,617,34,4,444,1,Reward2,0.02,congruent,12915,2,YA,7,617,35,4,533,1,Reward4,0.04,incongruent,12916,2,YA,7,617,36,3,754,1,Reward4,0,congruent,12917,2,YA,7,617,37,3,455,1,Reward4,0.04,incongruent,12918,2,YA,7,617,38,3,437,1,Reward2,0.02,incongruent,02919,2,YA,7,617,39,3,361,1,Reward1,0.01,incongruent,02920,2,YA,7,617,40,3,383,1,Reward4,0.04,incongruent,02921,2,YA,7,617,41,3,801,0,Reward4,0,congruent,12922,2,YA,7,617,42,4,369,1,Reward1,0.01,congruent,12923,2,YA,7,617,43,4,470,1,Reward1,0.01,congruent,02924,2,YA,7,617,44,4,455,1,Reward1,0.01,incongruent,12925,2,YA,7,617,45,3,480,1,Reward2,0.02,incongruent,02926,2,YA,7,617,46,3,434,0,Reward4,0,congruent,02927,2,YA,7,617,47,3,371,1,Reward4,0.04,incongruent,02928,2,YA,7,617,48,3,739,0,Reward1,0,incongruent,12929,2,YA,7,617,49,4,486,1,Reward4,0.04,congruent,02930,2,YA,7,617,50,3,401,1,Reward4,0.04,incongruent,12931,2,YA,7,617,51,3,787,1,Reward2,0,incongruent,12932,2,YA,7,617,52,3,420,1,Reward2,0.02,incongruent,02933,2,YA,7,617,53,4,598,1,Reward1,0.01,incongruent,12934,2,YA,7,617,54,4,397,1,Reward4,0.04,incongruent,12935,2,YA,7,617,55,3,336,1,Reward2,0.02,congruent,12936,2,YA,7,617,56,3,365,1,Reward4,0.04,congruent,12937,2,YA,7,617,57,4,509,1,Reward1,0.01,congruent,02938,2,YA,7,617,58,3,1070,0,Reward4,0,incongruent,12939,2,YA,7,617,59,3,395,1,Reward2,0.02,congruent,12940,2,YA,7,617,60,3,406,1,Reward2,0.02,incongruent,12941,2,YA,7,617,61,4,391,1,Reward2,0.02,incongruent,12942,2,YA,7,617,62,3,474,1,Reward2,0.02,congruent,02943,2,YA,7,617,63,4,967,1,Reward1,0,incongruent,02944,2,YA,7,617,64,3,364,1,Reward1,0.01,incongruent,12945,2,YA,7,617,65,3,505,1,Reward4,0.04,incongruent,12946,2,YA,7,617,66,3,310,1,Reward1,0.01,incongruent,12947,2,YA,7,617,67,3,386,1,Reward1,0.01,congruent,02948,2,YA,7,617,68,4,379,1,Reward2,0.02,congruent,12949,2,YA,7,617,69,4,413,1,Reward1,0.01,congruent,12950,2,YA,7,617,70,4,510,1,Reward1,0.01,congruent,02951,2,YA,7,617,71,4,409,1,Reward2,0.02,congruent,02952,2,YA,7,617,72,3,632,1,Reward4,0,congruent,12953,2,YA,7,617,73,3,332,1,Reward4,0.04,congruent,12954,2,YA,7,617,74,4,515,1,Reward4,0.04,congruent,12955,2,YA,7,617,75,4,744,1,Reward1,0,congruent,12956,2,YA,7,617,76,4,454,1,Reward4,0.04,incongruent,02957,2,YA,7,617,77,3,511,1,Reward2,0.02,congruent,12958,2,YA,7,617,78,4,438,1,Reward4,0.04,congruent,02959,2,YA,7,617,79,3,570,1,Reward1,0.01,incongruent,02960,2,YA,7,617,80,4,375,1,Reward4,0.04,incongruent,12961,2,YA,7,617,81,3,395,1,Reward2,0.02,congruent,02962,2,YA,7,617,82,3,725,1,Reward1,0,congruent,02963,2,YA,7,617,83,4,411,1,Reward1,0.01,incongruent,02964,2,YA,7,617,84,3,542,1,Reward4,0.04,incongruent,02965,2,YA,7,617,85,3,440,1,Reward1,0.01,incongruent,02966,2,YA,7,617,86,3,352,1,Reward1,0.01,incongruent,12967,2,YA,7,617,87,4,906,1,Reward4,0,congruent,12968,2,YA,7,617,88,4,615,1,Reward1,0.01,incongruent,02969,2,YA,7,617,89,3,493,1,Reward1,0.01,congruent,12970,2,YA,7,617,90,3,334,1,Reward2,0.02,incongruent,12971,2,YA,7,617,91,4,411,1,Reward1,0.01,congruent,02972,2,YA,7,617,92,3,348,1,Reward2,0.02,incongruent,02973,2,YA,7,617,93,4,337,1,Reward1,0.01,incongruent,12974,2,YA,7,617,94,3,809,0,Reward4,0,incongruent,02975,2,YA,7,617,95,4,453,1,Reward2,0.02,incongruent,12976,2,YA,7,617,96,3,749,0,Reward4,0,congruent,02977,2,YA,8,617,1,3,798,1,Reward2,0,congruent,02978,2,YA,8,617,2,4,482,1,Reward2,0.02,incongruent,02979,2,YA,8,617,3,4,588,1,Reward2,0.02,congruent,12980,2,YA,8,617,4,4,717,1,Reward2,0,incongruent,02981,2,YA,8,617,5,3,534,1,Reward4,0.04,incongruent,02982,2,YA,8,617,6,4,838,1,Reward2,0,congruent,12983,2,YA,8,617,7,3,457,1,Reward4,0.04,congruent,02984,2,YA,8,617,8,3,591,1,Reward1,0.01,incongruent,02985,2,YA,8,617,9,3,319,0,Reward2,0,incongruent,02986,2,YA,8,617,10,3,288,1,Reward1,0.01,congruent,12987,2,YA,8,617,11,3,594,1,Reward1,0.01,congruent,12988,2,YA,8,617,12,3,569,1,Reward2,0.02,incongruent,12989,2,YA,8,617,13,3,1947,1,Reward1,0,congruent,02990,2,YA,8,617,14,3,499,1,Reward4,0.04,congruent,02991,2,YA,8,617,15,4,493,1,Reward2,0.02,congruent,02992,2,YA,8,617,16,4,630,1,Reward4,0,incongruent,02993,2,YA,8,617,17,3,588,0,Reward2,0,incongruent,12994,2,YA,8,617,18,4,710,1,Reward4,0,incongruent,02995,2,YA,8,617,19,4,610,1,Reward2,0.02,congruent,02996,2,YA,8,617,20,3,544,1,Reward4,0.04,congruent,02997,2,YA,8,617,21,3,609,0,Reward1,0,congruent,12998,2,YA,8,617,22,3,874,1,Reward1,0,congruent,02999,2,YA,8,617,23,3,267,0,Reward2,0,congruent,03000,2,YA,8,617,24,3,550,1,Reward4,0.04,incongruent,13001,2,YA,8,617,25,3,83,0,Reward4,0,congruent,13002,2,YA,8,617,26,4,14,0,Reward2,0,congruent,03003,2,YA,8,617,27,3,274,1,Reward1,0.01,congruent,13004,2,YA,8,617,28,3,592,0,Reward2,0,incongruent,13005,2,YA,8,617,29,3,256,0,Reward2,0,incongruent,03006,2,YA,8,617,30,3,211,0,Reward1,0,incongruent,03007,2,YA,8,617,31,4,568,0,Reward2,0,congruent,13008,2,YA,8,617,32,4,841,0,Reward1,0,incongruent,13009,2,YA,8,617,33,3,370,1,Reward4,0.04,congruent,03010,2,YA,8,617,34,3,601,0,Reward2,0,congruent,13011,2,YA,8,617,35,3,324,0,Reward4,0,incongruent,13012,2,YA,8,617,36,4,865,0,Reward4,0,congruent,13013,2,YA,8,617,37,3,539,1,Reward4,0.04,incongruent,13014,2,YA,8,617,38,3,728,1,Reward2,0,incongruent,03015,2,YA,8,617,39,3,600,1,Reward1,0.01,incongruent,03016,2,YA,8,617,40,3,474,1,Reward4,0.04,incongruent,03017,2,YA,8,617,41,4,707,1,Reward4,0,congruent,13018,2,YA,8,617,42,3,379,0,Reward1,0,congruent,13019,2,YA,8,617,43,3,567,0,Reward1,0,congruent,03020,2,YA,8,617,44,4,498,1,Reward1,0.01,incongruent,13021,2,YA,8,617,45,3,611,1,Reward2,0.02,incongruent,03022,2,YA,8,617,46,4,898,1,Reward4,0,congruent,03023,2,YA,8,617,47,3,545,1,Reward4,0.04,incongruent,03024,2,YA,8,617,48,3,526,0,Reward1,0,incongruent,13025,2,YA,8,617,49,4,891,1,Reward4,0,congruent,03026,2,YA,8,617,50,3,495,1,Reward4,0.04,incongruent,13027,2,YA,8,617,51,4,624,0,Reward2,0,incongruent,13028,2,YA,8,617,52,4,763,0,Reward2,0,incongruent,03029,2,YA,8,617,53,4,847,1,Reward1,0,incongruent,13030,2,YA,8,617,54,3,187,0,Reward4,0,incongruent,13031,2,YA,8,617,55,3,230,1,Reward2,0.02,congruent,13032,2,YA,8,617,56,3,423,1,Reward4,0.04,congruent,13033,2,YA,8,617,57,4,492,1,Reward1,0.01,congruent,03034,2,YA,8,617,58,4,615,1,Reward4,0.04,incongruent,13035,2,YA,8,617,59,3,429,1,Reward2,0.02,congruent,13036,2,YA,8,617,60,4,461,0,Reward2,0,incongruent,13037,2,YA,8,617,61,3,747,0,Reward2,0,incongruent,13038,2,YA,8,617,62,3,514,1,Reward2,0.02,congruent,03039,2,YA,8,617,63,4,755,1,Reward1,0,incongruent,03040,2,YA,8,617,64,3,524,1,Reward1,0.01,incongruent,13041,2,YA,8,617,65,3,369,1,Reward4,0.04,incongruent,13042,2,YA,8,617,66,3,535,1,Reward1,0.01,incongruent,13043,2,YA,8,617,67,3,281,1,Reward1,0.01,congruent,03044,2,YA,8,617,68,4,524,1,Reward2,0.02,congruent,13045,2,YA,8,617,69,3,685,0,Reward1,0,congruent,13046,2,YA,8,617,70,4,501,1,Reward1,0.01,congruent,03047,2,YA,8,617,71,3,919,0,Reward2,0,congruent,03048,2,YA,8,617,72,3,487,1,Reward4,0.04,congruent,13049,2,YA,8,617,73,3,602,1,Reward4,0.04,congruent,13050,2,YA,8,617,74,3,523,0,Reward4,0,congruent,13051,2,YA,8,617,75,4,487,1,Reward1,0.01,congruent,13052,2,YA,8,617,76,4,676,1,Reward4,0,incongruent,03053,2,YA,8,617,77,3,525,1,Reward2,0.02,congruent,13054,2,YA,8,617,78,4,414,1,Reward4,0.04,congruent,03055,2,YA,8,617,79,3,446,1,Reward1,0.01,incongruent,03056,2,YA,8,617,80,4,510,1,Reward4,0.04,incongruent,13057,2,YA,8,617,81,3,328,1,Reward2,0.02,congruent,03058,2,YA,8,617,82,3,402,1,Reward1,0.01,congruent,03059,2,YA,8,617,83,4,266,1,Reward1,0.01,incongruent,03060,2,YA,8,617,84,3,257,1,Reward4,0.04,incongruent,03061,2,YA,8,617,85,3,313,1,Reward1,0.01,incongruent,03062,2,YA,8,617,86,3,421,1,Reward1,0.01,incongruent,13063,2,YA,8,617,87,4,558,1,Reward4,0.04,congruent,13064,2,YA,8,617,88,4,508,1,Reward1,0.01,incongruent,03065,2,YA,8,617,89,3,404,1,Reward1,0.01,congruent,13066,2,YA,8,617,90,3,782,1,Reward2,0,incongruent,13067,2,YA,8,617,91,3,539,0,Reward1,0,congruent,03068,2,YA,8,617,92,3,360,1,Reward2,0.02,incongruent,03069,2,YA,8,617,93,3,568,0,Reward1,0,incongruent,13070,2,YA,8,617,94,3,355,0,Reward4,0,incongruent,03071,2,YA,8,617,95,3,687,0,Reward2,0,incongruent,13072,2,YA,8,617,96,4,477,1,Reward4,0.04,congruent,03073,2,YA,9,617,1,3,739,1,Reward1,0,incongruent,03074,2,YA,9,617,2,3,504,1,Reward1,0.01,incongruent,13075,2,YA,9,617,3,3,529,1,Reward1,0.01,congruent,13076,2,YA,9,617,4,3,363,1,Reward1,0.01,congruent,13077,2,YA,9,617,5,3,379,1,Reward2,0.02,incongruent,03078,2,YA,9,617,6,3,538,1,Reward1,0.01,congruent,03079,2,YA,9,617,7,4,331,1,Reward2,0.02,incongruent,03080,2,YA,9,617,8,3,438,1,Reward4,0.04,congruent,13081,2,YA,9,617,9,4,510,1,Reward2,0.02,incongruent,13082,2,YA,9,617,10,4,431,1,Reward2,0.02,incongruent,03083,2,YA,9,617,11,3,539,1,Reward1,0.01,congruent,03084,2,YA,9,617,12,4,447,1,Reward2,0.02,incongruent,13085,2,YA,9,617,13,3,660,1,Reward4,0,congruent,03086,2,YA,9,617,14,3,406,1,Reward2,0.02,congruent,13087,2,YA,9,617,15,3,323,1,Reward1,0.01,incongruent,13088,2,YA,9,617,16,4,450,1,Reward1,0.01,incongruent,03089,2,YA,9,617,17,4,567,1,Reward4,0.04,congruent,03090,2,YA,9,617,18,4,452,1,Reward2,0.02,incongruent,13091,2,YA,9,617,19,4,397,1,Reward4,0.04,congruent,13092,2,YA,9,617,20,3,373,1,Reward1,0.01,congruent,13093,2,YA,9,617,21,3,478,1,Reward2,0.02,congruent,13094,2,YA,9,617,22,4,545,1,Reward4,0.04,incongruent,03095,2,YA,9,617,23,4,367,1,Reward2,0.02,congruent,13096,2,YA,9,617,24,3,677,1,Reward2,0,incongruent,03097,2,YA,9,617,25,4,337,1,Reward1,0.01,incongruent,03098,2,YA,9,617,26,4,443,1,Reward1,0.01,incongruent,13099,2,YA,9,617,27,4,358,1,Reward4,0.04,incongruent,13100,2,YA,9,617,28,4,411,1,Reward4,0.04,congruent,13101,2,YA,9,617,29,3,382,1,Reward2,0.02,congruent,13102,2,YA,9,617,30,3,371,1,Reward4,0.04,incongruent,03103,2,YA,9,617,31,3,586,1,Reward2,0.02,incongruent,13104,2,YA,9,617,32,4,441,1,Reward2,0.02,incongruent,03105,2,YA,9,617,33,3,546,1,Reward4,0.04,congruent,13106,2,YA,9,617,34,4,421,1,Reward4,0.04,incongruent,13107,2,YA,9,617,35,4,468,1,Reward4,0.04,congruent,13108,2,YA,9,617,36,4,369,1,Reward2,0.02,congruent,13109,2,YA,9,617,37,3,623,1,Reward4,0,incongruent,13110,2,YA,9,617,38,4,398,1,Reward4,0.04,incongruent,03111,2,YA,9,617,39,4,445,1,Reward4,0.04,incongruent,13112,2,YA,9,617,40,3,403,1,Reward4,0.04,incongruent,03113,2,YA,9,617,41,4,433,1,Reward2,0.02,congruent,03114,2,YA,9,617,42,3,566,0,Reward1,0,congruent,13115,2,YA,9,617,43,4,426,1,Reward4,0.04,congruent,03116,2,YA,9,617,44,4,605,1,Reward2,0.02,congruent,03117,2,YA,9,617,45,4,413,1,Reward1,0.01,incongruent,13118,2,YA,9,617,46,3,822,1,Reward1,0,incongruent,03119,2,YA,9,617,47,4,399,1,Reward2,0.02,congruent,13120,2,YA,9,617,48,3,347,1,Reward1,0.01,incongruent,03121,2,YA,9,617,49,4,453,1,Reward2,0.02,incongruent,13122,2,YA,9,617,50,4,386,1,Reward1,0.01,congruent,03123,2,YA,9,617,51,4,440,1,Reward4,0.04,congruent,13124,2,YA,9,617,52,4,462,1,Reward4,0.04,incongruent,03125,2,YA,9,617,53,3,371,1,Reward2,0.02,incongruent,13126,2,YA,9,617,54,3,481,1,Reward1,0.01,incongruent,13127,2,YA,9,617,55,3,381,1,Reward1,0.01,congruent,13128,2,YA,9,617,56,3,551,1,Reward1,0.01,congruent,03129,2,YA,9,617,57,4,755,1,Reward4,0,congruent,03130,2,YA,9,617,58,3,388,0,Reward1,0,incongruent,13131,2,YA,9,617,59,3,506,1,Reward2,0.02,congruent,13132,2,YA,9,617,60,3,475,1,Reward2,0.02,incongruent,03133,2,YA,9,617,61,3,351,1,Reward4,0.04,congruent,13134,2,YA,9,617,62,3,401,1,Reward4,0.04,congruent,03135,2,YA,9,617,63,4,414,1,Reward1,0.01,congruent,13136,2,YA,9,617,64,3,345,1,Reward2,0.02,congruent,03137,2,YA,9,617,65,3,315,1,Reward2,0.02,congruent,03138,2,YA,9,617,66,4,441,1,Reward1,0.01,congruent,13139,2,YA,9,617,67,3,588,0,Reward1,0,incongruent,03140,2,YA,9,617,68,4,438,1,Reward2,0.02,congruent,03141,2,YA,9,617,69,3,836,0,Reward2,0,congruent,13142,2,YA,9,617,70,4,436,1,Reward2,0.02,congruent,03143,2,YA,9,617,71,3,1035,0,Reward4,0,incongruent,03144,2,YA,9,617,72,3,327,1,Reward2,0.02,incongruent,13145,2,YA,9,617,73,3,512,1,Reward4,0.04,incongruent,13146,2,YA,9,617,74,3,340,1,Reward2,0.02,incongruent,13147,2,YA,9,617,75,3,380,1,Reward4,0.04,incongruent,13148,2,YA,9,617,76,3,438,1,Reward1,0.01,congruent,03149,2,YA,9,617,77,4,385,1,Reward2,0.02,incongruent,03150,2,YA,9,617,78,3,352,1,Reward4,0.04,incongruent,03151,2,YA,9,617,79,3,591,0,Reward1,0,incongruent,13152,2,YA,9,617,80,3,428,1,Reward4,0.04,incongruent,03153,2,YA,9,617,81,4,578,1,Reward1,0.01,congruent,03154,2,YA,9,617,82,4,449,1,Reward4,0.04,congruent,03155,2,YA,9,617,83,3,507,1,Reward4,0.04,congruent,03156,2,YA,9,617,84,3,412,1,Reward2,0.02,congruent,03157,2,YA,9,617,85,3,588,1,Reward1,0.01,incongruent,13158,2,YA,9,617,86,3,462,0,Reward4,0,incongruent,13159,2,YA,9,617,87,4,444,1,Reward1,0.01,congruent,13160,2,YA,9,617,88,3,598,1,Reward4,0.04,congruent,03161,2,YA,9,617,89,3,374,1,Reward2,0.02,incongruent,03162,2,YA,9,617,90,4,412,1,Reward1,0.01,incongruent,03163,2,YA,9,617,91,3,474,1,Reward4,0.04,incongruent,13164,2,YA,9,617,92,3,507,1,Reward2,0.02,congruent,03165,2,YA,9,617,93,3,481,1,Reward1,0.01,incongruent,03166,2,YA,9,617,94,4,496,1,Reward1,0.01,congruent,03167,2,YA,9,617,95,3,561,1,Reward4,0.04,congruent,13168,2,YA,9,617,96,4,430,1,Reward1,0.01,congruent,05473,3,YA,7,1046,1,3,680,1,Reward2,0.02,incongruent,05474,3,YA,7,1046,2,4,731,1,Reward2,0.02,congruent,05475,3,YA,7,1046,3,3,1212,1,Reward2,0,incongruent,15476,3,YA,7,1046,4,3,1166,1,Reward2,0,congruent,05477,3,YA,7,1046,5,4,740,1,Reward4,0.04,congruent,05478,3,YA,7,1046,6,3,862,0,Reward2,0,incongruent,15479,3,YA,7,1046,7,4,668,0,Reward4,0,incongruent,05480,3,YA,7,1046,8,3,1303,1,Reward1,0,congruent,05481,3,YA,7,1046,9,4,1469,1,Reward2,0,congruent,05482,3,YA,7,1046,10,3,1139,0,Reward1,0,incongruent,15483,3,YA,7,1046,11,3,689,1,Reward1,0.01,incongruent,15484,3,YA,7,1046,12,4,1078,1,Reward2,0,congruent,15485,3,YA,7,1046,13,3,868,0,Reward1,0,incongruent,05486,3,YA,7,1046,14,4,580,1,Reward4,0.04,incongruent,05487,3,YA,7,1046,15,3,578,1,Reward2,0.02,incongruent,05488,3,YA,7,1046,16,3,1069,1,Reward4,0,congruent,05489,3,YA,7,1046,17,4,491,1,Reward2,0.02,congruent,15490,3,YA,7,1046,18,4,807,1,Reward4,0.04,congruent,05491,3,YA,7,1046,19,4,806,1,Reward2,0.02,incongruent,05492,3,YA,7,1046,20,3,595,1,Reward4,0.04,incongruent,05493,3,YA,7,1046,21,3,877,1,Reward1,0.01,incongruent,15494,3,YA,7,1046,22,4,963,1,Reward1,0.01,incongruent,05495,3,YA,7,1046,23,3,834,1,Reward2,0.02,incongruent,05496,3,YA,7,1046,24,3,963,1,Reward4,0.04,congruent,15497,3,YA,7,1046,25,3,787,1,Reward4,0.04,incongruent,15498,3,YA,7,1046,26,4,951,1,Reward2,0.02,incongruent,05499,3,YA,7,1046,27,3,761,1,Reward1,0.01,incongruent,15500,3,YA,7,1046,28,3,933,1,Reward2,0.02,congruent,15501,3,YA,7,1046,29,3,643,1,Reward2,0.02,congruent,05502,3,YA,7,1046,30,3,542,1,Reward1,0.01,congruent,05503,3,YA,7,1046,31,3,1189,1,Reward2,0,incongruent,15504,3,YA,7,1046,32,4,738,1,Reward1,0.01,congruent,15505,3,YA,7,1046,33,4,588,1,Reward4,0.04,incongruent,05506,3,YA,7,1046,34,4,926,1,Reward2,0.02,incongruent,15507,3,YA,7,1046,35,3,705,1,Reward4,0.04,congruent,15508,3,YA,7,1046,36,3,887,1,Reward4,0.04,incongruent,15509,3,YA,7,1046,37,4,590,1,Reward4,0.04,congruent,15510,3,YA,7,1046,38,4,824,1,Reward2,0.02,congruent,05511,3,YA,7,1046,39,4,946,1,Reward1,0.01,congruent,05512,3,YA,7,1046,40,4,555,1,Reward4,0.04,congruent,05513,3,YA,7,1046,41,3,983,0,Reward4,0,incongruent,15514,3,YA,7,1046,42,4,1097,0,Reward1,0,incongruent,15515,3,YA,7,1046,43,3,638,1,Reward1,0.01,incongruent,05516,3,YA,7,1046,44,4,569,1,Reward1,0.01,congruent,15517,3,YA,7,1046,45,3,719,1,Reward2,0.02,congruent,05518,3,YA,7,1046,46,3,782,0,Reward4,0,incongruent,05519,3,YA,7,1046,47,3,602,1,Reward4,0.04,congruent,05520,3,YA,7,1046,48,3,662,1,Reward1,0.01,congruent,15521,3,YA,7,1046,49,3,684,1,Reward4,0.04,incongruent,05522,3,YA,7,1046,50,3,608,1,Reward4,0.04,congruent,15523,3,YA,7,1046,51,4,427,1,Reward2,0.02,congruent,15524,3,YA,7,1046,52,4,1030,1,Reward2,0.02,congruent,05525,3,YA,7,1046,53,3,525,0,Reward1,0,congruent,15526,3,YA,7,1046,54,4,975,0,Reward4,0,congruent,15527,3,YA,7,1046,55,3,711,1,Reward2,0.02,incongruent,15528,3,YA,7,1046,56,3,673,0,Reward4,0,incongruent,15529,3,YA,7,1046,57,3,679,1,Reward1,0.01,incongruent,05530,3,YA,7,1046,58,4,505,1,Reward4,0.04,congruent,15531,3,YA,7,1046,59,3,586,0,Reward2,0,incongruent,15532,3,YA,7,1046,60,3,1036,1,Reward2,0.02,congruent,15533,3,YA,7,1046,61,3,1110,1,Reward2,0,congruent,15534,3,YA,7,1046,62,4,1158,1,Reward2,0,incongruent,05535,3,YA,7,1046,63,3,784,1,Reward1,0.01,congruent,05536,3,YA,7,1046,64,3,736,1,Reward1,0.01,congruent,15537,3,YA,7,1046,65,4,926,1,Reward4,0.04,congruent,15538,3,YA,7,1046,66,4,1074,0,Reward1,0,congruent,15539,3,YA,7,1046,67,3,565,1,Reward1,0.01,incongruent,05540,3,YA,7,1046,68,3,1294,1,Reward2,0,incongruent,15541,3,YA,7,1046,69,4,1000,1,Reward1,0.01,incongruent,15542,3,YA,7,1046,70,4,790,1,Reward1,0.01,incongruent,05543,3,YA,7,1046,71,3,915,1,Reward2,0.02,incongruent,05544,3,YA,7,1046,72,3,1114,0,Reward4,0,incongruent,15545,3,YA,7,1046,73,3,604,1,Reward4,0.04,incongruent,15546,3,YA,7,1046,74,3,1719,1,Reward4,0,incongruent,15547,3,YA,7,1046,75,4,588,1,Reward1,0.01,incongruent,15548,3,YA,7,1046,76,4,983,1,Reward4,0.04,congruent,05549,3,YA,7,1046,77,4,1047,1,Reward2,0,incongruent,15550,3,YA,7,1046,78,3,562,1,Reward4,0.04,incongruent,05551,3,YA,7,1046,79,4,629,1,Reward1,0.01,congruent,05552,3,YA,7,1046,80,4,830,1,Reward4,0.04,congruent,15553,3,YA,7,1046,81,4,886,0,Reward2,0,incongruent,05554,3,YA,7,1046,82,4,572,0,Reward1,0,incongruent,05555,3,YA,7,1046,83,4,858,1,Reward1,0.01,congruent,05556,3,YA,7,1046,84,3,595,1,Reward4,0.04,congruent,05557,3,YA,7,1046,85,3,568,1,Reward1,0.01,congruent,05558,3,YA,7,1046,86,4,803,1,Reward1,0.01,congruent,15559,3,YA,7,1046,87,4,606,1,Reward4,0.04,incongruent,15560,3,YA,7,1046,88,4,769,1,Reward1,0.01,congruent,05561,3,YA,7,1046,89,4,1082,1,Reward1,0,incongruent,15562,3,YA,7,1046,90,3,1264,1,Reward2,0,congruent,15563,3,YA,7,1046,91,4,806,1,Reward1,0.01,incongruent,05564,3,YA,7,1046,92,3,970,1,Reward2,0.02,congruent,05565,3,YA,7,1046,93,4,655,0,Reward1,0,congruent,15566,3,YA,7,1046,94,3,667,1,Reward4,0.04,congruent,05567,3,YA,7,1046,95,3,1262,0,Reward2,0,congruent,15568,3,YA,7,1046,96,4,900,1,Reward4,0.04,incongruent,05569,3,YA,8,1046,1,4,787,1,Reward2,0.02,congruent,05570,3,YA,8,1046,2,4,797,0,Reward1,0,incongruent,05571,3,YA,8,1046,3,4,938,1,Reward1,0.01,congruent,15572,3,YA,8,1046,4,4,629,1,Reward4,0.04,incongruent,05573,3,YA,8,1046,5,4,802,0,Reward2,0,incongruent,15574,3,YA,8,1046,6,4,667,1,Reward4,0.04,congruent,15575,3,YA,8,1046,7,4,566,1,Reward1,0.01,congruent,15576,3,YA,8,1046,8,4,941,1,Reward4,0.04,congruent,15577,3,YA,8,1046,9,3,775,1,Reward1,0.01,congruent,15578,3,YA,8,1046,10,3,802,1,Reward2,0.02,congruent,15579,3,YA,8,1046,11,4,996,0,Reward4,0,incongruent,15580,3,YA,8,1046,12,4,930,1,Reward4,0.04,congruent,05581,3,YA,8,1046,13,3,634,1,Reward2,0.02,congruent,05582,3,YA,8,1046,14,3,730,1,Reward4,0.04,congruent,05583,3,YA,8,1046,15,3,746,1,Reward1,0.01,congruent,05584,3,YA,8,1046,16,3,560,0,Reward2,0,incongruent,05585,3,YA,8,1046,17,4,714,1,Reward4,0.04,incongruent,15586,3,YA,8,1046,18,4,1111,1,Reward2,0,incongruent,15587,3,YA,8,1046,19,4,747,1,Reward1,0.01,incongruent,15588,3,YA,8,1046,20,4,552,1,Reward4,0.04,incongruent,05589,3,YA,8,1046,21,3,652,0,Reward1,0,incongruent,05590,3,YA,8,1046,22,4,696,1,Reward4,0.04,incongruent,15591,3,YA,8,1046,23,4,730,1,Reward4,0.04,incongruent,05592,3,YA,8,1046,24,4,839,1,Reward2,0.02,incongruent,15593,3,YA,8,1046,25,4,805,0,Reward4,0,incongruent,05594,3,YA,8,1046,26,4,675,1,Reward2,0.02,incongruent,15595,3,YA,8,1046,27,4,661,1,Reward1,0.01,congruent,05596,3,YA,8,1046,28,4,566,1,Reward2,0.02,incongruent,05597,3,YA,8,1046,29,4,732,0,Reward2,0,incongruent,05598,3,YA,8,1046,30,4,510,1,Reward2,0.02,congruent,15599,3,YA,8,1046,31,3,484,1,Reward4,0.04,congruent,15600,3,YA,8,1046,32,4,1327,0,Reward4,0,congruent,15601,3,YA,8,1046,33,4,1293,0,Reward2,0,congruent,15602,3,YA,8,1046,34,3,494,1,Reward1,0.01,incongruent,15603,3,YA,8,1046,35,3,543,1,Reward4,0.04,congruent,05604,3,YA,8,1046,36,3,875,1,Reward1,0.01,incongruent,15605,3,YA,8,1046,37,3,648,1,Reward4,0.04,incongruent,05606,3,YA,8,1046,38,4,681,1,Reward1,0.01,congruent,15607,3,YA,8,1046,39,4,677,1,Reward2,0.02,congruent,05608,3,YA,8,1046,40,4,628,1,Reward4,0.04,congruent,05609,3,YA,8,1046,41,4,698,1,Reward2,0.02,incongruent,05610,3,YA,8,1046,42,4,645,1,Reward1,0.01,incongruent,15611,3,YA,8,1046,43,4,1077,1,Reward2,0,congruent,15612,3,YA,8,1046,44,4,524,1,Reward4,0.04,congruent,15613,3,YA,8,1046,45,4,553,0,Reward2,0,incongruent,15614,3,YA,8,1046,46,4,955,0,Reward1,0,incongruent,15615,3,YA,8,1046,47,4,607,0,Reward2,0,congruent,05616,3,YA,8,1046,48,3,541,1,Reward1,0.01,incongruent,05617,3,YA,8,1046,49,3,649,1,Reward4,0.04,congruent,05618,3,YA,8,1046,50,4,691,0,Reward4,0,incongruent,05619,3,YA,8,1046,51,3,799,1,Reward1,0.01,incongruent,15620,3,YA,8,1046,52,3,757,1,Reward1,0.01,congruent,05621,3,YA,8,1046,53,3,477,1,Reward2,0.02,incongruent,05622,3,YA,8,1046,54,3,648,1,Reward1,0.01,congruent,05623,3,YA,8,1046,55,3,696,0,Reward2,0,congruent,05624,3,YA,8,1046,56,4,717,1,Reward2,0.02,congruent,15625,3,YA,8,1046,57,4,475,1,Reward1,0.01,congruent,05626,3,YA,8,1046,58,4,572,1,Reward2,0.02,congruent,05627,3,YA,8,1046,59,3,1034,0,Reward4,0,incongruent,15628,3,YA,8,1046,60,3,742,1,Reward1,0.01,incongruent,05629,3,YA,8,1046,61,3,670,1,Reward2,0.02,congruent,15630,3,YA,8,1046,62,3,551,1,Reward2,0.02,congruent,15631,3,YA,8,1046,63,3,708,1,Reward2,0.02,congruent,05632,3,YA,8,1046,64,3,755,1,Reward4,0.04,congruent,05633,3,YA,8,1046,65,3,587,1,Reward4,0.04,congruent,15634,3,YA,8,1046,66,3,1781,0,Reward4,0,congruent,05635,3,YA,8,1046,67,3,544,1,Reward1,0.01,congruent,15636,3,YA,8,1046,68,3,562,1,Reward2,0.02,congruent,05637,3,YA,8,1046,69,4,612,1,Reward1,0.01,incongruent,15638,3,YA,8,1046,70,3,546,1,Reward2,0.02,incongruent,15639,3,YA,8,1046,71,4,450,1,Reward4,0.04,incongruent,15640,3,YA,8,1046,72,3,473,1,Reward4,0.04,congruent,15641,3,YA,8,1046,73,4,526,1,Reward4,0.04,congruent,05642,3,YA,8,1046,74,3,728,1,Reward2,0.02,incongruent,15643,3,YA,8,1046,75,4,609,0,Reward4,0,incongruent,15644,3,YA,8,1046,76,4,820,1,Reward2,0.02,congruent,15645,3,YA,8,1046,77,4,789,1,Reward4,0.04,incongruent,05646,3,YA,8,1046,78,4,610,0,Reward4,0,incongruent,15647,3,YA,8,1046,79,4,908,1,Reward4,0.04,congruent,15648,3,YA,8,1046,80,3,1514,0,Reward1,0,incongruent,15649,3,YA,8,1046,81,3,1033,1,Reward4,0.04,incongruent,15650,3,YA,8,1046,82,4,660,1,Reward1,0.01,incongruent,05651,3,YA,8,1046,83,4,1182,1,Reward1,0,incongruent,05652,3,YA,8,1046,84,3,543,1,Reward2,0.02,incongruent,05653,3,YA,8,1046,85,3,603,1,Reward1,0.01,congruent,05654,3,YA,8,1046,86,4,722,0,Reward1,0,congruent,15655,3,YA,8,1046,87,3,558,1,Reward1,0.01,congruent,15656,3,YA,8,1046,88,3,749,0,Reward2,0,incongruent,15657,3,YA,8,1046,89,3,617,1,Reward1,0.01,incongruent,05658,3,YA,8,1046,90,3,688,0,Reward1,0,congruent,05659,3,YA,8,1046,91,3,434,1,Reward2,0.02,incongruent,05660,3,YA,8,1046,92,4,491,1,Reward1,0.01,incongruent,05661,3,YA,8,1046,93,4,760,1,Reward1,0.01,congruent,05662,3,YA,8,1046,94,4,528,0,Reward4,0,incongruent,05663,3,YA,8,1046,95,4,507,1,Reward2,0.02,incongruent,05664,3,YA,8,1046,96,3,993,0,Reward1,0,congruent,15665,3,YA,9,1046,1,4,725,0,Reward1,0,congruent,05666,3,YA,9,1046,2,4,760,1,Reward1,0.01,congruent,15667,3,YA,9,1046,3,4,545,0,Reward1,0,incongruent,15668,3,YA,9,1046,4,4,621,1,Reward1,0.01,incongruent,15669,3,YA,9,1046,5,4,809,1,Reward2,0.02,congruent,05670,3,YA,9,1046,6,4,698,1,Reward1,0.01,incongruent,05671,3,YA,9,1046,7,4,530,0,Reward2,0,congruent,05672,3,YA,9,1046,8,3,519,1,Reward4,0.04,incongruent,15673,3,YA,9,1046,9,4,681,0,Reward2,0,congruent,15674,3,YA,9,1046,10,3,859,1,Reward2,0.02,congruent,05675,3,YA,9,1046,11,3,690,0,Reward1,0,incongruent,05676,3,YA,9,1046,12,3,740,0,Reward2,0,congruent,15677,3,YA,9,1046,13,4,838,0,Reward4,0,incongruent,05678,3,YA,9,1046,14,3,727,0,Reward2,0,incongruent,15679,3,YA,9,1046,15,3,465,1,Reward1,0.01,congruent,15680,3,YA,9,1046,16,4,875,1,Reward1,0.01,congruent,05681,3,YA,9,1046,17,4,682,1,Reward4,0.04,incongruent,05682,3,YA,9,1046,18,4,609,0,Reward2,0,congruent,15683,3,YA,9,1046,19,4,648,1,Reward4,0.04,incongruent,15684,3,YA,9,1046,20,4,737,1,Reward1,0.01,incongruent,15685,3,YA,9,1046,21,3,653,1,Reward2,0.02,incongruent,15686,3,YA,9,1046,22,4,905,1,Reward4,0.04,congruent,05687,3,YA,9,1046,23,4,747,0,Reward2,0,incongruent,15688,3,YA,9,1046,24,4,735,1,Reward2,0.02,congruent,05689,3,YA,9,1046,25,3,779,1,Reward1,0.01,congruent,05690,3,YA,9,1046,26,4,599,1,Reward1,0.01,congruent,15691,3,YA,9,1046,27,4,854,0,Reward4,0,congruent,15692,3,YA,9,1046,28,4,887,1,Reward4,0.04,incongruent,15693,3,YA,9,1046,29,4,578,1,Reward2,0.02,incongruent,15694,3,YA,9,1046,30,3,823,0,Reward4,0,congruent,05695,3,YA,9,1046,31,4,568,0,Reward2,0,congruent,15696,3,YA,9,1046,32,3,367,0,Reward2,0,congruent,05697,3,YA,9,1046,33,3,1185,0,Reward4,0,incongruent,15698,3,YA,9,1046,34,4,502,1,Reward4,0.04,congruent,15699,3,YA,9,1046,35,4,700,0,Reward4,0,incongruent,15700,3,YA,9,1046,36,3,777,0,Reward2,0,incongruent,15701,3,YA,9,1046,37,4,979,1,Reward4,0.04,congruent,15702,3,YA,9,1046,38,4,1088,0,Reward4,0,congruent,05703,3,YA,9,1046,39,4,595,1,Reward4,0.04,congruent,15704,3,YA,9,1046,40,3,709,1,Reward4,0.04,congruent,05705,3,YA,9,1046,41,4,584,1,Reward2,0.02,incongruent,05706,3,YA,9,1046,42,3,652,1,Reward1,0.01,incongruent,15707,3,YA,9,1046,43,3,782,1,Reward4,0.04,incongruent,05708,3,YA,9,1046,44,3,889,1,Reward2,0.02,incongruent,05709,3,YA,9,1046,45,4,1053,1,Reward1,0,congruent,15710,3,YA,9,1046,46,3,662,1,Reward1,0.01,congruent,05711,3,YA,9,1046,47,3,900,1,Reward2,0.02,incongruent,15712,3,YA,9,1046,48,4,551,1,Reward1,0.01,congruent,05713,3,YA,9,1046,49,4,624,1,Reward2,0.02,congruent,15714,3,YA,9,1046,50,4,567,1,Reward1,0.01,incongruent,05715,3,YA,9,1046,51,3,601,1,Reward4,0.04,incongruent,15716,3,YA,9,1046,52,3,644,1,Reward4,0.04,congruent,05717,3,YA,9,1046,53,4,718,0,Reward2,0,congruent,15718,3,YA,9,1046,54,4,668,1,Reward1,0.01,congruent,15719,3,YA,9,1046,55,4,669,0,Reward1,0,incongruent,15720,3,YA,9,1046,56,3,591,1,Reward1,0.01,incongruent,05721,3,YA,9,1046,57,3,841,0,Reward4,0,incongruent,05722,3,YA,9,1046,58,3,567,1,Reward1,0.01,congruent,15723,3,YA,9,1046,59,3,572,1,Reward2,0.02,incongruent,15724,3,YA,9,1046,60,3,596,1,Reward2,0.02,congruent,05725,3,YA,9,1046,61,4,774,1,Reward4,0.04,incongruent,15726,3,YA,9,1046,62,4,530,1,Reward4,0.04,incongruent,05727,3,YA,9,1046,63,4,581,1,Reward1,0.01,incongruent,15728,3,YA,9,1046,64,3,597,1,Reward2,0.02,incongruent,05729,3,YA,9,1046,65,4,778,0,Reward2,0,incongruent,05730,3,YA,9,1046,66,4,671,0,Reward1,0,incongruent,15731,3,YA,9,1046,67,3,683,1,Reward1,0.01,congruent,05732,3,YA,9,1046,68,4,958,0,Reward2,0,incongruent,05733,3,YA,9,1046,69,4,648,1,Reward2,0.02,incongruent,15734,3,YA,9,1046,70,4,666,1,Reward2,0.02,incongruent,05735,3,YA,9,1046,71,4,511,1,Reward4,0.04,congruent,05736,3,YA,9,1046,72,4,1168,1,Reward2,0,congruent,15737,3,YA,9,1046,73,3,670,1,Reward4,0.04,congruent,15738,3,YA,9,1046,74,4,681,1,Reward2,0.02,congruent,15739,3,YA,9,1046,75,3,744,1,Reward4,0.04,congruent,15740,3,YA,9,1046,76,4,839,0,Reward1,0,incongruent,05741,3,YA,9,1046,77,4,661,1,Reward2,0.02,congruent,05742,3,YA,9,1046,78,3,510,1,Reward4,0.04,congruent,05743,3,YA,9,1046,79,4,864,0,Reward1,0,congruent,15744,3,YA,9,1046,80,4,895,1,Reward4,0.04,congruent,05745,3,YA,9,1046,81,4,668,0,Reward1,0,incongruent,05746,3,YA,9,1046,82,3,725,1,Reward4,0.04,incongruent,05747,3,YA,9,1046,83,4,581,1,Reward4,0.04,incongruent,05748,3,YA,9,1046,84,3,808,0,Reward2,0,incongruent,05749,3,YA,9,1046,85,3,650,1,Reward1,0.01,congruent,15750,3,YA,9,1046,86,4,972,0,Reward4,0,congruent,15751,3,YA,9,1046,87,3,1139,0,Reward1,0,incongruent,15752,3,YA,9,1046,88,3,567,1,Reward4,0.04,incongruent,05753,3,YA,9,1046,89,3,879,1,Reward2,0.02,congruent,05754,3,YA,9,1046,90,4,1266,1,Reward1,0,congruent,05755,3,YA,9,1046,91,3,1012,0,Reward4,0,congruent,15756,3,YA,9,1046,92,4,665,1,Reward2,0.02,incongruent,05757,3,YA,9,1046,93,4,766,1,Reward1,0.01,congruent,05758,3,YA,9,1046,94,3,620,1,Reward1,0.01,incongruent,05759,3,YA,9,1046,95,3,514,1,Reward4,0.04,incongruent,15760,3,YA,9,1046,96,4,596,1,Reward1,0.01,incongruent,08641,4,YA,7,645,1,4,676,1,Reward2,0,incongruent,08642,4,YA,7,645,2,3,587,1,Reward2,0.02,congruent,08643,4,YA,7,645,3,4,526,1,Reward2,0.02,incongruent,18644,4,YA,7,645,4,4,486,1,Reward2,0.02,congruent,08645,4,YA,7,645,5,3,552,1,Reward4,0.04,congruent,08646,4,YA,7,645,6,3,582,1,Reward2,0.02,incongruent,18647,4,YA,7,645,7,4,529,1,Reward4,0.04,incongruent,08648,4,YA,7,645,8,4,595,1,Reward1,0.01,congruent,08649,4,YA,7,645,9,3,491,1,Reward2,0.02,congruent,08650,4,YA,7,645,10,4,435,0,Reward1,0,incongruent,18651,4,YA,7,645,11,4,712,1,Reward1,0,incongruent,18652,4,YA,7,645,12,3,486,1,Reward2,0.02,congruent,18653,4,YA,7,645,13,3,1011,1,Reward1,0,incongruent,08654,4,YA,7,645,14,4,544,0,Reward4,0,incongruent,08655,4,YA,7,645,15,4,549,1,Reward2,0.02,incongruent,08656,4,YA,7,645,16,3,1003,0,Reward4,0,congruent,08657,4,YA,7,645,17,3,551,1,Reward2,0.02,congruent,18658,4,YA,7,645,18,3,586,1,Reward4,0.04,congruent,08659,4,YA,7,645,19,3,570,1,Reward2,0.02,incongruent,08660,4,YA,7,645,20,4,690,1,Reward4,0,incongruent,08661,4,YA,7,645,21,4,504,1,Reward1,0.01,incongruent,18662,4,YA,7,645,22,3,704,1,Reward1,0,incongruent,08663,4,YA,7,645,23,4,878,1,Reward2,0,incongruent,08664,4,YA,7,645,24,3,584,0,Reward4,0,congruent,18665,4,YA,7,645,25,NA,0,0,Reward4,0,incongruent,18666,4,YA,7,645,26,3,796,1,Reward2,0,incongruent,08667,4,YA,7,645,27,4,472,1,Reward1,0.01,incongruent,18668,4,YA,7,645,28,4,802,1,Reward2,0,congruent,18669,4,YA,7,645,29,4,610,1,Reward2,0.02,congruent,08670,4,YA,7,645,30,4,377,1,Reward1,0.01,congruent,08671,4,YA,7,645,31,4,1012,1,Reward2,0,incongruent,18672,4,YA,7,645,32,3,461,1,Reward1,0.01,congruent,18673,4,YA,7,645,33,3,519,1,Reward4,0.04,incongruent,08674,4,YA,7,645,34,3,748,1,Reward2,0,incongruent,18675,4,YA,7,645,35,4,662,1,Reward4,0,congruent,18676,4,YA,7,645,36,4,484,1,Reward4,0.04,incongruent,18677,4,YA,7,645,37,3,435,1,Reward4,0.04,congruent,18678,4,YA,7,645,38,3,560,1,Reward2,0.02,congruent,08679,4,YA,7,645,39,3,621,1,Reward1,0.01,congruent,08680,4,YA,7,645,40,3,546,1,Reward4,0.04,congruent,08681,4,YA,7,645,41,3,544,1,Reward4,0.04,incongruent,18682,4,YA,7,645,42,4,718,1,Reward1,0,incongruent,18683,4,YA,7,645,43,4,1213,1,Reward1,0,incongruent,08684,4,YA,7,645,44,3,448,1,Reward1,0.01,congruent,18685,4,YA,7,645,45,4,608,1,Reward2,0.02,congruent,08686,4,YA,7,645,46,3,779,1,Reward4,0,incongruent,08687,4,YA,7,645,47,4,533,1,Reward4,0.04,congruent,08688,4,YA,7,645,48,3,843,0,Reward1,0,congruent,18689,4,YA,7,645,49,3,1295,0,Reward4,0,incongruent,08690,4,YA,7,645,50,4,536,1,Reward4,0.04,congruent,18691,4,YA,7,645,51,3,597,1,Reward2,0.02,congruent,18692,4,YA,7,645,52,3,432,1,Reward2,0.02,congruent,08693,4,YA,7,645,53,3,444,1,Reward1,0.01,congruent,18694,4,YA,7,645,54,3,510,0,Reward4,0,congruent,18695,4,YA,7,645,55,4,502,1,Reward2,0.02,incongruent,18696,4,YA,7,645,56,4,610,0,Reward4,0,incongruent,18697,4,YA,7,645,57,3,612,0,Reward1,0,incongruent,08698,4,YA,7,645,58,3,468,1,Reward4,0.04,congruent,18699,4,YA,7,645,59,3,559,1,Reward2,0.02,incongruent,18700,4,YA,7,645,60,4,483,1,Reward2,0.02,congruent,18701,4,YA,7,645,61,3,404,0,Reward2,0,congruent,18702,4,YA,7,645,62,3,583,1,Reward2,0.02,incongruent,08703,4,YA,7,645,63,4,567,1,Reward1,0.01,congruent,08704,4,YA,7,645,64,4,830,1,Reward1,0,congruent,18705,4,YA,7,645,65,3,458,1,Reward4,0.04,congruent,18706,4,YA,7,645,66,4,533,1,Reward1,0.01,congruent,18707,4,YA,7,645,67,4,496,1,Reward1,0.01,incongruent,08708,4,YA,7,645,68,4,487,1,Reward2,0.02,incongruent,18709,4,YA,7,645,69,3,486,1,Reward1,0.01,incongruent,18710,4,YA,7,645,70,4,769,0,Reward1,0,incongruent,08711,4,YA,7,645,71,4,541,1,Reward2,0.02,incongruent,08712,4,YA,7,645,72,3,648,1,Reward4,0,incongruent,18713,4,YA,7,645,73,4,684,1,Reward4,0,incongruent,18714,4,YA,7,645,74,4,747,1,Reward4,0,incongruent,18715,4,YA,7,645,75,3,555,1,Reward1,0.01,incongruent,18716,4,YA,7,645,76,3,399,1,Reward4,0.04,congruent,08717,4,YA,7,645,77,3,669,1,Reward2,0,incongruent,18718,4,YA,7,645,78,4,538,1,Reward4,0.04,incongruent,08719,4,YA,7,645,79,3,809,1,Reward1,0,congruent,08720,4,YA,7,645,80,3,447,1,Reward4,0.04,congruent,18721,4,YA,7,645,81,4,421,1,Reward2,0.02,incongruent,08722,4,YA,7,645,82,4,464,1,Reward1,0.01,incongruent,08723,4,YA,7,645,83,4,433,0,Reward1,0,congruent,08724,4,YA,7,645,84,4,465,1,Reward4,0.04,congruent,08725,4,YA,7,645,85,4,520,1,Reward1,0.01,congruent,08726,4,YA,7,645,86,3,416,1,Reward1,0.01,congruent,18727,4,YA,7,645,87,3,483,1,Reward4,0.04,incongruent,18728,4,YA,7,645,88,4,439,0,Reward1,0,congruent,08729,4,YA,7,645,89,3,496,1,Reward1,0.01,incongruent,18730,4,YA,7,645,90,4,561,1,Reward2,0.02,congruent,18731,4,YA,7,645,91,4,428,0,Reward1,0,incongruent,08732,4,YA,7,645,92,4,1415,1,Reward2,0,congruent,08733,4,YA,7,645,93,4,835,1,Reward1,0,congruent,18734,4,YA,7,645,94,4,620,1,Reward4,0.04,congruent,08735,4,YA,7,645,95,3,416,1,Reward2,0.02,congruent,18736,4,YA,7,645,96,3,435,1,Reward4,0.04,incongruent,08737,4,YA,8,645,1,4,654,0,Reward2,0,congruent,08738,4,YA,8,645,2,4,669,1,Reward1,0,incongruent,08739,4,YA,8,645,3,3,621,1,Reward1,0.01,congruent,18740,4,YA,8,645,4,NA,0,0,Reward4,0,incongruent,08741,4,YA,8,645,5,NA,0,0,Reward2,0,incongruent,18742,4,YA,8,645,6,NA,0,0,Reward4,0,congruent,18743,4,YA,8,645,7,NA,0,0,Reward1,0,congruent,18744,4,YA,8,645,8,NA,0,0,Reward4,0,congruent,18745,4,YA,8,645,9,NA,0,0,Reward1,0,congruent,18746,4,YA,8,645,10,NA,0,0,Reward2,0,congruent,18747,4,YA,8,645,11,NA,0,0,Reward4,0,incongruent,18748,4,YA,8,645,12,NA,0,0,Reward4,0,congruent,08749,4,YA,8,645,13,NA,0,0,Reward2,0,congruent,08750,4,YA,8,645,14,4,1201,1,Reward4,0,congruent,08751,4,YA,8,645,15,NA,0,0,Reward1,0,congruent,08752,4,YA,8,645,16,NA,0,0,Reward2,0,incongruent,08753,4,YA,8,645,17,3,395,1,Reward4,0.04,incongruent,18754,4,YA,8,645,18,NA,0,0,Reward2,0,incongruent,18755,4,YA,8,645,19,NA,0,0,Reward1,0,incongruent,18756,4,YA,8,645,20,NA,0,0,Reward4,0,incongruent,08757,4,YA,8,645,21,NA,0,0,Reward1,0,incongruent,08758,4,YA,8,645,22,NA,0,0,Reward4,0,incongruent,18759,4,YA,8,645,23,NA,0,0,Reward4,0,incongruent,08760,4,YA,8,645,24,NA,0,0,Reward2,0,incongruent,18761,4,YA,8,645,25,NA,0,0,Reward4,0,incongruent,08762,4,YA,8,645,26,NA,0,0,Reward2,0,incongruent,18763,4,YA,8,645,27,NA,0,0,Reward1,0,congruent,08764,4,YA,8,645,28,NA,0,0,Reward2,0,incongruent,08765,4,YA,8,645,29,NA,0,0,Reward2,0,incongruent,08766,4,YA,8,645,30,NA,0,0,Reward2,0,congruent,18767,4,YA,8,645,31,NA,0,0,Reward4,0,congruent,18768,4,YA,8,645,32,NA,0,0,Reward4,0,congruent,18769,4,YA,8,645,33,NA,0,0,Reward2,0,congruent,18770,4,YA,8,645,34,NA,0,0,Reward1,0,incongruent,18771,4,YA,8,645,35,NA,0,0,Reward4,0,congruent,08772,4,YA,8,645,36,NA,0,0,Reward1,0,incongruent,18773,4,YA,8,645,37,NA,0,0,Reward4,0,incongruent,08774,4,YA,8,645,38,NA,0,0,Reward1,0,congruent,18775,4,YA,8,645,39,NA,0,0,Reward2,0,congruent,08776,4,YA,8,645,40,NA,0,0,Reward4,0,congruent,08777,4,YA,8,645,41,NA,0,0,Reward2,0,incongruent,08778,4,YA,8,645,42,NA,0,0,Reward1,0,incongruent,18779,4,YA,8,645,43,NA,0,0,Reward2,0,congruent,18780,4,YA,8,645,44,NA,0,0,Reward4,0,congruent,18781,4,YA,8,645,45,NA,0,0,Reward2,0,incongruent,18782,4,YA,8,645,46,NA,0,0,Reward1,0,incongruent,18783,4,YA,8,645,47,NA,0,0,Reward2,0,congruent,08784,4,YA,8,645,48,NA,0,0,Reward1,0,incongruent,08785,4,YA,8,645,49,NA,0,0,Reward4,0,congruent,08786,4,YA,8,645,50,NA,0,0,Reward4,0,incongruent,08787,4,YA,8,645,51,NA,0,0,Reward1,0,incongruent,18788,4,YA,8,645,52,NA,0,0,Reward1,0,congruent,08789,4,YA,8,645,53,NA,0,0,Reward2,0,incongruent,08790,4,YA,8,645,54,NA,0,0,Reward1,0,congruent,08791,4,YA,8,645,55,NA,0,0,Reward2,0,congruent,08792,4,YA,8,645,56,NA,0,0,Reward2,0,congruent,18793,4,YA,8,645,57,NA,0,0,Reward1,0,congruent,08794,4,YA,8,645,58,NA,0,0,Reward2,0,congruent,08795,4,YA,8,645,59,NA,0,0,Reward4,0,incongruent,18796,4,YA,8,645,60,NA,0,0,Reward1,0,incongruent,08797,4,YA,8,645,61,NA,0,0,Reward2,0,congruent,18798,4,YA,8,645,62,NA,0,0,Reward2,0,congruent,18799,4,YA,8,645,63,NA,0,0,Reward2,0,congruent,08800,4,YA,8,645,64,NA,0,0,Reward4,0,congruent,08801,4,YA,8,645,65,NA,0,0,Reward4,0,congruent,18802,4,YA,8,645,66,NA,0,0,Reward4,0,congruent,08803,4,YA,8,645,67,NA,0,0,Reward1,0,congruent,18804,4,YA,8,645,68,NA,0,0,Reward2,0,congruent,08805,4,YA,8,645,69,NA,0,0,Reward1,0,incongruent,18806,4,YA,8,645,70,NA,0,0,Reward2,0,incongruent,18807,4,YA,8,645,71,NA,0,0,Reward4,0,incongruent,18808,4,YA,8,645,72,NA,0,0,Reward4,0,congruent,18809,4,YA,8,645,73,NA,0,0,Reward4,0,congruent,08810,4,YA,8,645,74,NA,0,0,Reward2,0,incongruent,18811,4,YA,8,645,75,NA,0,0,Reward4,0,incongruent,18812,4,YA,8,645,76,NA,0,0,Reward2,0,congruent,18813,4,YA,8,645,77,NA,0,0,Reward4,0,incongruent,08814,4,YA,8,645,78,NA,0,0,Reward4,0,incongruent,18815,4,YA,8,645,79,NA,0,0,Reward4,0,congruent,18816,4,YA,8,645,80,NA,0,0,Reward1,0,incongruent,18817,4,YA,8,645,81,NA,0,0,Reward4,0,incongruent,18818,4,YA,8,645,82,NA,0,0,Reward1,0,incongruent,08819,4,YA,8,645,83,NA,0,0,Reward1,0,incongruent,08820,4,YA,8,645,84,NA,0,0,Reward2,0,incongruent,08821,4,YA,8,645,85,NA,0,0,Reward1,0,congruent,08822,4,YA,8,645,86,NA,0,0,Reward1,0,congruent,18823,4,YA,8,645,87,NA,0,0,Reward1,0,congruent,18824,4,YA,8,645,88,NA,0,0,Reward2,0,incongruent,18825,4,YA,8,645,89,NA,0,0,Reward1,0,incongruent,08826,4,YA,8,645,90,NA,0,0,Reward1,0,congruent,08827,4,YA,8,645,91,NA,0,0,Reward2,0,incongruent,08828,4,YA,8,645,92,NA,0,0,Reward1,0,incongruent,08829,4,YA,8,645,93,NA,0,0,Reward1,0,congruent,08830,4,YA,8,645,94,NA,0,0,Reward4,0,incongruent,08831,4,YA,8,645,95,NA,0,0,Reward2,0,incongruent,08832,4,YA,8,645,96,NA,0,0,Reward1,0,congruent,18833,4,YA,9,645,1,4,491,1,Reward1,0.01,congruent,08834,4,YA,9,645,2,4,595,0,Reward1,0,congruent,18835,4,YA,9,645,3,NA,0,0,Reward1,0,incongruent,18836,4,YA,9,645,4,NA,0,0,Reward1,0,incongruent,18837,4,YA,9,645,5,3,679,1,Reward2,0,congruent,08838,4,YA,9,645,6,NA,0,0,Reward1,0,incongruent,08839,4,YA,9,645,7,4,522,1,Reward2,0.02,congruent,08840,4,YA,9,645,8,3,493,0,Reward4,0,incongruent,18841,4,YA,9,645,9,4,503,1,Reward2,0.02,congruent,18842,4,YA,9,645,10,4,553,1,Reward2,0.02,congruent,08843,4,YA,9,645,11,NA,0,0,Reward1,0,incongruent,08844,4,YA,9,645,12,NA,0,0,Reward2,0,congruent,18845,4,YA,9,645,13,4,504,1,Reward4,0.04,incongruent,08846,4,YA,9,645,14,NA,0,0,Reward2,0,incongruent,18847,4,YA,9,645,15,NA,0,0,Reward1,0,congruent,18848,4,YA,9,645,16,NA,0,0,Reward1,0,congruent,08849,4,YA,9,645,17,4,427,0,Reward4,0,incongruent,08850,4,YA,9,645,18,NA,0,0,Reward2,0,congruent,18851,4,YA,9,645,19,3,806,1,Reward4,0,incongruent,18852,4,YA,9,645,20,NA,0,0,Reward1,0,incongruent,18853,4,YA,9,645,21,NA,0,0,Reward2,0,incongruent,18854,4,YA,9,645,22,3,476,1,Reward4,0.04,congruent,08855,4,YA,9,645,23,NA,0,0,Reward2,0,incongruent,18856,4,YA,9,645,24,NA,0,0,Reward2,0,congruent,08857,4,YA,9,645,25,NA,0,0,Reward1,0,congruent,08858,4,YA,9,645,26,NA,0,0,Reward1,0,congruent,18859,4,YA,9,645,27,3,510,0,Reward4,0,congruent,18860,4,YA,9,645,28,3,527,1,Reward4,0.04,incongruent,18861,4,YA,9,645,29,NA,0,0,Reward2,0,incongruent,18862,4,YA,9,645,30,3,526,1,Reward4,0.04,congruent,08863,4,YA,9,645,31,NA,0,0,Reward2,0,congruent,18864,4,YA,9,645,32,NA,0,0,Reward2,0,congruent,08865,4,YA,9,645,33,3,386,1,Reward4,0.04,incongruent,18866,4,YA,9,645,34,3,455,1,Reward4,0.04,congruent,18867,4,YA,9,645,35,4,411,1,Reward4,0.04,incongruent,18868,4,YA,9,645,36,NA,0,0,Reward2,0,incongruent,18869,4,YA,9,645,37,4,534,0,Reward4,0,congruent,18870,4,YA,9,645,38,4,460,1,Reward4,0.04,congruent,08871,4,YA,9,645,39,3,564,1,Reward4,0.04,congruent,18872,4,YA,9,645,40,4,506,1,Reward4,0.04,congruent,08873,4,YA,9,645,41,NA,0,0,Reward2,0,incongruent,08874,4,YA,9,645,42,NA,0,0,Reward1,0,incongruent,18875,4,YA,9,645,43,NA,0,0,Reward4,0,incongruent,08876,4,YA,9,645,44,NA,0,0,Reward2,0,incongruent,08877,4,YA,9,645,45,NA,0,0,Reward1,0,congruent,18878,4,YA,9,645,46,NA,0,0,Reward1,0,congruent,08879,4,YA,9,645,47,NA,0,0,Reward2,0,incongruent,18880,4,YA,9,645,48,NA,0,0,Reward1,0,congruent,08881,4,YA,9,645,49,NA,0,0,Reward2,0,congruent,18882,4,YA,9,645,50,NA,0,0,Reward1,0,incongruent,08883,4,YA,9,645,51,NA,0,0,Reward4,0,incongruent,18884,4,YA,9,645,52,NA,0,0,Reward4,0,congruent,08885,4,YA,9,645,53,NA,0,0,Reward2,0,congruent,18886,4,YA,9,645,54,NA,0,0,Reward1,0,congruent,18887,4,YA,9,645,55,NA,0,0,Reward1,0,incongruent,18888,4,YA,9,645,56,NA,0,0,Reward1,0,incongruent,08889,4,YA,9,645,57,NA,0,0,Reward4,0,incongruent,08890,4,YA,9,645,58,NA,0,0,Reward1,0,congruent,18891,4,YA,9,645,59,NA,0,0,Reward2,0,incongruent,18892,4,YA,9,645,60,NA,0,0,Reward2,0,congruent,08893,4,YA,9,645,61,NA,0,0,Reward4,0,incongruent,18894,4,YA,9,645,62,NA,0,0,Reward4,0,incongruent,08895,4,YA,9,645,63,NA,0,0,Reward1,0,incongruent,18896,4,YA,9,645,64,NA,0,0,Reward2,0,incongruent,08897,4,YA,9,645,65,NA,0,0,Reward2,0,incongruent,08898,4,YA,9,645,66,NA,0,0,Reward1,0,incongruent,18899,4,YA,9,645,67,NA,0,0,Reward1,0,congruent,08900,4,YA,9,645,68,NA,0,0,Reward2,0,incongruent,08901,4,YA,9,645,69,NA,0,0,Reward2,0,incongruent,18902,4,YA,9,645,70,NA,0,0,Reward2,0,incongruent,08903,4,YA,9,645,71,NA,0,0,Reward4,0,congruent,08904,4,YA,9,645,72,NA,0,0,Reward2,0,congruent,18905,4,YA,9,645,73,NA,0,0,Reward4,0,congruent,18906,4,YA,9,645,74,NA,0,0,Reward2,0,congruent,18907,4,YA,9,645,75,NA,0,0,Reward4,0,congruent,18908,4,YA,9,645,76,NA,0,0,Reward1,0,incongruent,08909,4,YA,9,645,77,NA,0,0,Reward2,0,congruent,08910,4,YA,9,645,78,NA,0,0,Reward4,0,congruent,08911,4,YA,9,645,79,NA,0,0,Reward1,0,congruent,18912,4,YA,9,645,80,NA,0,0,Reward4,0,congruent,08913,4,YA,9,645,81,NA,0,0,Reward1,0,incongruent,08914,4,YA,9,645,82,NA,0,0,Reward4,0,incongruent,08915,4,YA,9,645,83,NA,0,0,Reward4,0,incongruent,08916,4,YA,9,645,84,NA,0,0,Reward2,0,incongruent,08917,4,YA,9,645,85,NA,0,0,Reward1,0,congruent,18918,4,YA,9,645,86,NA,0,0,Reward4,0,congruent,18919,4,YA,9,645,87,NA,0,0,Reward1,0,incongruent,18920,4,YA,9,645,88,NA,0,0,Reward4,0,incongruent,08921,4,YA,9,645,89,NA,0,0,Reward2,0,congruent,08922,4,YA,9,645,90,NA,0,0,Reward1,0,congruent,08923,4,YA,9,645,91,NA,0,0,Reward4,0,congruent,18924,4,YA,9,645,92,NA,0,0,Reward2,0,incongruent,08925,4,YA,9,645,93,NA,0,0,Reward1,0,congruent,08926,4,YA,9,645,94,NA,0,0,Reward1,0,incongruent,08927,4,YA,9,645,95,NA,0,0,Reward4,0,incongruent,18928,4,YA,9,645,96,NA,0,0,Reward1,0,incongruent,011809,5,YA,7,772,1,4,556,1,Reward2,0.02,congruent,011810,5,YA,7,772,2,3,451,1,Reward2,0.02,incongruent,011811,5,YA,7,772,3,3,454,1,Reward2,0.02,congruent,111812,5,YA,7,772,4,3,622,1,Reward2,0.02,incongruent,011813,5,YA,7,772,5,4,528,1,Reward4,0.04,incongruent,011814,5,YA,7,772,6,3,412,1,Reward2,0.02,congruent,111815,5,YA,7,772,7,4,512,1,Reward4,0.04,congruent,011816,5,YA,7,772,8,4,578,1,Reward1,0.01,incongruent,011817,5,YA,7,772,9,3,589,1,Reward2,0.02,incongruent,011818,5,YA,7,772,10,4,502,1,Reward1,0.01,congruent,111819,5,YA,7,772,11,4,623,1,Reward1,0.01,congruent,111820,5,YA,7,772,12,4,595,1,Reward2,0.02,incongruent,111821,5,YA,7,772,13,4,541,1,Reward1,0.01,congruent,011822,5,YA,7,772,14,4,519,1,Reward4,0.04,congruent,011823,5,YA,7,772,15,3,466,1,Reward2,0.02,congruent,011824,5,YA,7,772,16,3,496,1,Reward4,0.04,incongruent,011825,5,YA,7,772,17,4,526,0,Reward2,0,incongruent,111826,5,YA,7,772,18,3,628,1,Reward4,0.04,incongruent,011827,5,YA,7,772,19,3,488,1,Reward2,0.02,congruent,011828,5,YA,7,772,20,4,570,1,Reward4,0.04,congruent,011829,5,YA,7,772,21,3,621,1,Reward1,0.01,congruent,111830,5,YA,7,772,22,4,537,1,Reward1,0.01,congruent,011831,5,YA,7,772,23,3,508,1,Reward2,0.02,congruent,011832,5,YA,7,772,24,4,600,1,Reward4,0.04,incongruent,111833,5,YA,7,772,25,3,585,1,Reward4,0.04,congruent,111834,5,YA,7,772,26,4,425,1,Reward2,0.02,congruent,011835,5,YA,7,772,27,3,841,0,Reward1,0,congruent,111836,5,YA,7,772,28,3,1022,1,Reward2,0,incongruent,111837,5,YA,7,772,29,3,416,1,Reward2,0.02,incongruent,011838,5,YA,7,772,30,3,590,1,Reward1,0.01,incongruent,011839,5,YA,7,772,31,4,891,1,Reward2,0,congruent,111840,5,YA,7,772,32,4,986,1,Reward1,0,incongruent,111841,5,YA,7,772,33,4,549,1,Reward4,0.04,congruent,011842,5,YA,7,772,34,3,483,1,Reward2,0.02,congruent,111843,5,YA,7,772,35,3,365,1,Reward4,0.04,incongruent,111844,5,YA,7,772,36,4,603,1,Reward4,0.04,congruent,111845,5,YA,7,772,37,4,499,1,Reward4,0.04,incongruent,111846,5,YA,7,772,38,4,506,1,Reward2,0.02,incongruent,011847,5,YA,7,772,39,4,1075,1,Reward1,0,incongruent,011848,5,YA,7,772,40,4,457,1,Reward4,0.04,incongruent,011849,5,YA,7,772,41,3,809,1,Reward4,0,congruent,111850,5,YA,7,772,42,3,575,1,Reward1,0.01,congruent,111851,5,YA,7,772,43,3,567,1,Reward1,0.01,congruent,011852,5,YA,7,772,44,3,583,1,Reward1,0.01,incongruent,111853,5,YA,7,772,45,4,773,1,Reward2,0,incongruent,011854,5,YA,7,772,46,3,696,1,Reward4,0.04,congruent,011855,5,YA,7,772,47,3,536,0,Reward4,0,incongruent,011856,5,YA,7,772,48,3,447,1,Reward1,0.01,incongruent,111857,5,YA,7,772,49,3,504,1,Reward4,0.04,congruent,011858,5,YA,7,772,50,4,653,1,Reward4,0.04,incongruent,111859,5,YA,7,772,51,4,527,1,Reward2,0.02,incongruent,111860,5,YA,7,772,52,4,508,1,Reward2,0.02,incongruent,011861,5,YA,7,772,53,4,526,0,Reward1,0,incongruent,111862,5,YA,7,772,54,3,446,1,Reward4,0.04,incongruent,111863,5,YA,7,772,55,4,587,1,Reward2,0.02,congruent,111864,5,YA,7,772,56,4,395,1,Reward4,0.04,congruent,111865,5,YA,7,772,57,3,394,1,Reward1,0.01,congruent,011866,5,YA,7,772,58,4,490,0,Reward4,0,incongruent,111867,5,YA,7,772,59,4,891,1,Reward2,0,congruent,111868,5,YA,7,772,60,4,403,1,Reward2,0.02,incongruent,111869,5,YA,7,772,61,3,398,1,Reward2,0.02,incongruent,111870,5,YA,7,772,62,4,515,1,Reward2,0.02,congruent,011871,5,YA,7,772,63,3,444,1,Reward1,0.01,incongruent,011872,5,YA,7,772,64,4,647,1,Reward1,0.01,incongruent,111873,5,YA,7,772,65,4,1382,1,Reward4,0,incongruent,111874,5,YA,7,772,66,4,888,1,Reward1,0,incongruent,111875,5,YA,7,772,67,4,485,1,Reward1,0.01,congruent,011876,5,YA,7,772,68,3,624,1,Reward2,0.02,congruent,111877,5,YA,7,772,69,3,485,1,Reward1,0.01,congruent,111878,5,YA,7,772,70,3,644,1,Reward1,0.01,congruent,011879,5,YA,7,772,71,4,545,0,Reward2,0,congruent,011880,5,YA,7,772,72,4,388,1,Reward4,0.04,congruent,111881,5,YA,7,772,73,4,511,1,Reward4,0.04,congruent,111882,5,YA,7,772,74,4,715,0,Reward4,0,congruent,111883,5,YA,7,772,75,3,677,1,Reward1,0.01,congruent,111884,5,YA,7,772,76,3,541,1,Reward4,0.04,incongruent,011885,5,YA,7,772,77,4,609,1,Reward2,0.02,congruent,111886,5,YA,7,772,78,3,542,1,Reward4,0.04,congruent,011887,5,YA,7,772,79,4,483,1,Reward1,0.01,incongruent,011888,5,YA,7,772,80,3,523,1,Reward4,0.04,incongruent,111889,5,YA,7,772,81,3,1009,0,Reward2,0,congruent,011890,5,YA,7,772,82,4,541,1,Reward1,0.01,congruent,011891,5,YA,7,772,83,3,563,1,Reward1,0.01,incongruent,011892,5,YA,7,772,84,4,552,1,Reward4,0.04,incongruent,011893,5,YA,7,772,85,4,680,1,Reward1,0.01,incongruent,011894,5,YA,7,772,86,4,428,1,Reward1,0.01,incongruent,111895,5,YA,7,772,87,3,455,1,Reward4,0.04,congruent,111896,5,YA,7,772,88,4,776,0,Reward1,0,incongruent,011897,5,YA,7,772,89,4,445,1,Reward1,0.01,congruent,111898,5,YA,7,772,90,4,595,1,Reward2,0.02,incongruent,111899,5,YA,7,772,91,3,719,1,Reward1,0.01,congruent,011900,5,YA,7,772,92,4,557,1,Reward2,0.02,incongruent,011901,5,YA,7,772,93,3,514,1,Reward1,0.01,incongruent,111902,5,YA,7,772,94,3,550,1,Reward4,0.04,incongruent,011903,5,YA,7,772,95,4,1398,0,Reward2,0,incongruent,111904,5,YA,7,772,96,3,564,1,Reward4,0.04,congruent,011905,5,YA,8,772,1,4,407,1,Reward2,0.02,incongruent,011906,5,YA,8,772,2,3,387,1,Reward1,0.01,congruent,011907,5,YA,8,772,3,4,520,0,Reward1,0,incongruent,111908,5,YA,8,772,4,3,530,1,Reward4,0.04,congruent,011909,5,YA,8,772,5,3,638,1,Reward2,0.02,congruent,111910,5,YA,8,772,6,3,513,1,Reward4,0.04,incongruent,111911,5,YA,8,772,7,4,563,1,Reward1,0.01,incongruent,111912,5,YA,8,772,8,3,586,1,Reward4,0.04,incongruent,111913,5,YA,8,772,9,3,521,1,Reward1,0.01,incongruent,111914,5,YA,8,772,10,4,547,1,Reward2,0.02,incongruent,111915,5,YA,8,772,11,3,406,1,Reward4,0.04,congruent,111916,5,YA,8,772,12,4,449,1,Reward4,0.04,incongruent,011917,5,YA,8,772,13,3,896,1,Reward2,0,incongruent,011918,5,YA,8,772,14,3,503,1,Reward4,0.04,incongruent,011919,5,YA,8,772,15,3,474,1,Reward1,0.01,incongruent,011920,5,YA,8,772,16,4,874,1,Reward2,0,congruent,011921,5,YA,8,772,17,4,705,0,Reward4,0,congruent,111922,5,YA,8,772,18,4,401,1,Reward2,0.02,congruent,111923,5,YA,8,772,19,3,763,1,Reward1,0.01,congruent,111924,5,YA,8,772,20,3,624,1,Reward4,0.04,congruent,011925,5,YA,8,772,21,3,478,1,Reward1,0.01,congruent,011926,5,YA,8,772,22,4,623,1,Reward4,0.04,congruent,111927,5,YA,8,772,23,4,567,1,Reward4,0.04,congruent,011928,5,YA,8,772,24,3,527,1,Reward2,0.02,congruent,111929,5,YA,8,772,25,4,467,1,Reward4,0.04,congruent,011930,5,YA,8,772,26,4,723,1,Reward2,0.02,congruent,111931,5,YA,8,772,27,4,507,1,Reward1,0.01,incongruent,011932,5,YA,8,772,28,4,486,1,Reward2,0.02,congruent,011933,5,YA,8,772,29,3,483,1,Reward2,0.02,congruent,011934,5,YA,8,772,30,3,606,1,Reward2,0.02,incongruent,111935,5,YA,8,772,31,3,593,1,Reward4,0.04,incongruent,111936,5,YA,8,772,32,4,581,1,Reward4,0.04,incongruent,111937,5,YA,8,772,33,3,554,1,Reward2,0.02,incongruent,111938,5,YA,8,772,34,4,507,1,Reward1,0.01,congruent,111939,5,YA,8,772,35,4,561,1,Reward4,0.04,incongruent,011940,5,YA,8,772,36,3,526,1,Reward1,0.01,congruent,111941,5,YA,8,772,37,3,444,1,Reward4,0.04,congruent,011942,5,YA,8,772,38,3,688,1,Reward1,0.01,incongruent,111943,5,YA,8,772,39,3,532,1,Reward2,0.02,incongruent,011944,5,YA,8,772,40,3,515,1,Reward4,0.04,incongruent,011945,5,YA,8,772,41,3,786,1,Reward2,0,congruent,011946,5,YA,8,772,42,4,632,1,Reward1,0.01,congruent,111947,5,YA,8,772,43,4,524,0,Reward2,0,incongruent,111948,5,YA,8,772,44,3,526,0,Reward4,0,incongruent,111949,5,YA,8,772,45,4,646,1,Reward2,0.02,congruent,111950,5,YA,8,772,46,3,393,1,Reward1,0.01,congruent,111951,5,YA,8,772,47,3,470,1,Reward2,0.02,incongruent,011952,5,YA,8,772,48,3,1341,1,Reward1,0,congruent,011953,5,YA,8,772,49,4,510,0,Reward4,0,incongruent,011954,5,YA,8,772,50,3,447,1,Reward4,0.04,congruent,011955,5,YA,8,772,51,4,885,1,Reward1,0,congruent,111956,5,YA,8,772,52,4,722,1,Reward1,0.01,incongruent,011957,5,YA,8,772,53,4,718,1,Reward2,0.02,congruent,011958,5,YA,8,772,54,4,524,1,Reward1,0.01,incongruent,011959,5,YA,8,772,55,3,490,1,Reward2,0.02,incongruent,011960,5,YA,8,772,56,4,472,1,Reward2,0.02,incongruent,111961,5,YA,8,772,57,4,627,1,Reward1,0.01,incongruent,011962,5,YA,8,772,58,4,540,1,Reward2,0.02,incongruent,011963,5,YA,8,772,59,3,658,1,Reward4,0.04,congruent,111964,5,YA,8,772,60,NA,0,0,Reward1,0,congruent,011965,5,YA,8,772,61,3,440,1,Reward2,0.02,incongruent,111966,5,YA,8,772,62,3,986,0,Reward2,0,incongruent,111967,5,YA,8,772,63,4,562,1,Reward2,0.02,incongruent,011968,5,YA,8,772,64,4,546,1,Reward4,0.04,incongruent,011969,5,YA,8,772,65,3,457,1,Reward4,0.04,incongruent,111970,5,YA,8,772,66,4,453,1,Reward4,0.04,incongruent,011971,5,YA,8,772,67,4,526,1,Reward1,0.01,incongruent,111972,5,YA,8,772,68,4,592,1,Reward2,0.02,incongruent,011973,5,YA,8,772,69,4,436,1,Reward1,0.01,congruent,111974,5,YA,8,772,70,3,840,0,Reward2,0,congruent,111975,5,YA,8,772,71,4,541,1,Reward4,0.04,congruent,111976,5,YA,8,772,72,4,629,1,Reward4,0.04,incongruent,111977,5,YA,8,772,73,3,685,1,Reward4,0.04,incongruent,011978,5,YA,8,772,74,4,688,0,Reward2,0,congruent,111979,5,YA,8,772,75,4,533,1,Reward4,0.04,congruent,111980,5,YA,8,772,76,4,653,1,Reward2,0.02,incongruent,111981,5,YA,8,772,77,4,539,1,Reward4,0.04,congruent,011982,5,YA,8,772,78,3,884,0,Reward4,0,congruent,111983,5,YA,8,772,79,4,944,1,Reward4,0,incongruent,111984,5,YA,8,772,80,3,786,1,Reward1,0,congruent,111985,5,YA,8,772,81,3,500,1,Reward4,0.04,congruent,111986,5,YA,8,772,82,4,510,1,Reward1,0.01,congruent,011987,5,YA,8,772,83,4,454,1,Reward1,0.01,congruent,011988,5,YA,8,772,84,3,593,1,Reward2,0.02,congruent,011989,5,YA,8,772,85,3,441,1,Reward1,0.01,incongruent,011990,5,YA,8,772,86,4,612,1,Reward1,0.01,incongruent,111991,5,YA,8,772,87,3,430,1,Reward1,0.01,incongruent,111992,5,YA,8,772,88,3,740,1,Reward2,0.02,congruent,111993,5,YA,8,772,89,4,546,1,Reward1,0.01,congruent,011994,5,YA,8,772,90,4,500,0,Reward1,0,incongruent,011995,5,YA,8,772,91,4,662,1,Reward2,0.02,congruent,011996,5,YA,8,772,92,3,535,1,Reward1,0.01,congruent,011997,5,YA,8,772,93,3,454,1,Reward1,0.01,incongruent,011998,5,YA,8,772,94,4,553,1,Reward4,0.04,congruent,011999,5,YA,8,772,95,3,601,1,Reward2,0.02,congruent,012000,5,YA,8,772,96,4,575,1,Reward1,0.01,incongruent,112001,5,YA,9,772,1,4,527,1,Reward1,0.01,incongruent,012002,5,YA,9,772,2,4,564,1,Reward1,0.01,incongruent,112003,5,YA,9,772,3,3,885,0,Reward1,0,congruent,112004,5,YA,9,772,4,4,514,1,Reward1,0.01,congruent,112005,5,YA,9,772,5,4,459,1,Reward2,0.02,incongruent,012006,5,YA,9,772,6,4,569,1,Reward1,0.01,congruent,012007,5,YA,9,772,7,3,479,1,Reward2,0.02,incongruent,012008,5,YA,9,772,8,4,660,1,Reward4,0.04,congruent,112009,5,YA,9,772,9,3,396,1,Reward2,0.02,incongruent,112010,5,YA,9,772,10,3,622,1,Reward2,0.02,incongruent,012011,5,YA,9,772,11,4,760,1,Reward1,0.01,congruent,012012,5,YA,9,772,12,3,601,1,Reward2,0.02,incongruent,112013,5,YA,9,772,13,4,1021,1,Reward4,0,congruent,012014,5,YA,9,772,14,4,569,1,Reward2,0.02,congruent,112015,5,YA,9,772,15,3,624,0,Reward1,0,incongruent,112016,5,YA,9,772,16,3,841,1,Reward1,0,incongruent,012017,5,YA,9,772,17,3,863,1,Reward4,0,congruent,012018,5,YA,9,772,18,3,434,1,Reward2,0.02,incongruent,112019,5,YA,9,772,19,3,489,1,Reward4,0.04,congruent,112020,5,YA,9,772,20,4,496,1,Reward1,0.01,congruent,112021,5,YA,9,772,21,3,637,0,Reward2,0,congruent,112022,5,YA,9,772,22,3,584,1,Reward4,0.04,incongruent,012023,5,YA,9,772,23,4,795,0,Reward2,0,congruent,112024,5,YA,9,772,24,4,453,1,Reward2,0.02,incongruent,012025,5,YA,9,772,25,3,569,1,Reward1,0.01,incongruent,012026,5,YA,9,772,26,3,911,1,Reward1,0,incongruent,112027,5,YA,9,772,27,3,485,1,Reward4,0.04,incongruent,112028,5,YA,9,772,28,3,987,1,Reward4,0,congruent,112029,5,YA,9,772,29,4,675,1,Reward2,0.02,congruent,112030,5,YA,9,772,30,4,943,1,Reward4,0,incongruent,012031,5,YA,9,772,31,4,670,1,Reward2,0.02,incongruent,112032,5,YA,9,772,32,3,591,1,Reward2,0.02,incongruent,012033,5,YA,9,772,33,4,495,1,Reward4,0.04,congruent,112034,5,YA,9,772,34,3,582,1,Reward4,0.04,incongruent,112035,5,YA,9,772,35,3,761,1,Reward4,0.04,congruent,112036,5,YA,9,772,36,3,579,1,Reward2,0.02,congruent,112037,5,YA,9,772,37,3,820,0,Reward4,0,incongruent,112038,5,YA,9,772,38,3,559,1,Reward4,0.04,incongruent,012039,5,YA,9,772,39,3,452,1,Reward4,0.04,incongruent,112040,5,YA,9,772,40,4,659,1,Reward4,0.04,incongruent,012041,5,YA,9,772,41,3,619,1,Reward2,0.02,congruent,012042,5,YA,9,772,42,3,582,1,Reward1,0.01,congruent,112043,5,YA,9,772,43,3,567,1,Reward4,0.04,congruent,012044,5,YA,9,772,44,3,495,1,Reward2,0.02,congruent,012045,5,YA,9,772,45,3,695,1,Reward1,0.01,incongruent,112046,5,YA,9,772,46,4,588,1,Reward1,0.01,incongruent,012047,5,YA,9,772,47,3,550,1,Reward2,0.02,congruent,112048,5,YA,9,772,48,3,523,0,Reward1,0,incongruent,012049,5,YA,9,772,49,3,497,1,Reward2,0.02,incongruent,112050,5,YA,9,772,50,3,638,1,Reward1,0.01,congruent,012051,5,YA,9,772,51,3,539,1,Reward4,0.04,congruent,112052,5,YA,9,772,52,3,654,1,Reward4,0.04,incongruent,012053,5,YA,9,772,53,4,626,1,Reward2,0.02,incongruent,112054,5,YA,9,772,54,4,597,1,Reward1,0.01,incongruent,112055,5,YA,9,772,55,4,524,1,Reward1,0.01,congruent,112056,5,YA,9,772,56,4,698,1,Reward1,0.01,congruent,012057,5,YA,9,772,57,4,600,0,Reward4,0,congruent,012058,5,YA,9,772,58,3,567,1,Reward1,0.01,incongruent,112059,5,YA,9,772,59,3,546,0,Reward2,0,congruent,112060,5,YA,9,772,60,NA,0,0,Reward2,0,incongruent,012061,5,YA,9,772,61,4,558,1,Reward4,0.04,congruent,112062,5,YA,9,772,62,4,598,1,Reward4,0.04,congruent,012063,5,YA,9,772,63,3,944,1,Reward1,0,congruent,112064,5,YA,9,772,64,4,664,1,Reward2,0.02,congruent,012065,5,YA,9,772,65,4,594,1,Reward2,0.02,congruent,012066,5,YA,9,772,66,3,423,1,Reward1,0.01,congruent,112067,5,YA,9,772,67,3,671,1,Reward1,0.01,incongruent,012068,5,YA,9,772,68,3,1212,1,Reward2,0,congruent,012069,5,YA,9,772,69,3,559,1,Reward2,0.02,congruent,112070,5,YA,9,772,70,3,804,1,Reward2,0,congruent,012071,5,YA,9,772,71,3,486,1,Reward4,0.04,incongruent,012072,5,YA,9,772,72,4,569,1,Reward2,0.02,incongruent,112073,5,YA,9,772,73,4,553,1,Reward4,0.04,incongruent,112074,5,YA,9,772,74,4,598,1,Reward2,0.02,incongruent,112075,5,YA,9,772,75,4,592,1,Reward4,0.04,incongruent,112076,5,YA,9,772,76,4,582,1,Reward1,0.01,congruent,012077,5,YA,9,772,77,3,893,1,Reward2,0,incongruent,012078,5,YA,9,772,78,4,723,1,Reward4,0.04,incongruent,012079,5,YA,9,772,79,3,742,1,Reward1,0.01,incongruent,112080,5,YA,9,772,80,4,788,1,Reward4,0,incongruent,012081,5,YA,9,772,81,3,383,1,Reward1,0.01,congruent,012082,5,YA,9,772,82,3,745,1,Reward4,0.04,congruent,012083,5,YA,9,772,83,4,553,1,Reward4,0.04,congruent,012084,5,YA,9,772,84,4,428,1,Reward2,0.02,congruent,012085,5,YA,9,772,85,3,672,0,Reward1,0,incongruent,112086,5,YA,9,772,86,3,544,1,Reward4,0.04,incongruent,112087,5,YA,9,772,87,3,435,1,Reward1,0.01,congruent,112088,5,YA,9,772,88,4,542,1,Reward4,0.04,congruent,012089,5,YA,9,772,89,4,648,1,Reward2,0.02,incongruent,012090,5,YA,9,772,90,3,633,1,Reward1,0.01,incongruent,012091,5,YA,9,772,91,4,610,1,Reward4,0.04,incongruent,112092,5,YA,9,772,92,4,493,1,Reward2,0.02,congruent,012093,5,YA,9,772,93,4,470,1,Reward1,0.01,incongruent,012094,5,YA,9,772,94,3,517,1,Reward1,0.01,congruent,012095,5,YA,9,772,95,4,486,1,Reward4,0.04,congruent,112096,5,YA,9,772,96,3,1107,1,Reward1,0,congruent,014689,6,YA,7,1102,1,4,1440,0,Reward2,0,congruent,014690,6,YA,7,1102,2,4,600,1,Reward2,0.02,incongruent,014691,6,YA,7,1102,3,3,1064,0,Reward2,0,congruent,114692,6,YA,7,1102,4,3,803,0,Reward2,0,incongruent,014693,6,YA,7,1102,5,4,576,0,Reward4,0,incongruent,014694,6,YA,7,1102,6,3,701,0,Reward2,0,congruent,114695,6,YA,7,1102,7,3,741,1,Reward4,0.04,congruent,014696,6,YA,7,1102,8,3,718,1,Reward1,0.01,incongruent,014697,6,YA,7,1102,9,3,601,0,Reward2,0,incongruent,014698,6,YA,7,1102,10,3,616,1,Reward1,0.01,congruent,114699,6,YA,7,1102,11,4,1046,0,Reward1,0,congruent,114700,6,YA,7,1102,12,3,523,1,Reward2,0.02,incongruent,114701,6,YA,7,1102,13,3,874,1,Reward1,0.01,congruent,014702,6,YA,7,1102,14,3,721,1,Reward4,0.04,congruent,014703,6,YA,7,1102,15,4,610,1,Reward2,0.02,congruent,014704,6,YA,7,1102,16,4,1022,1,Reward4,0.04,incongruent,014705,6,YA,7,1102,17,3,733,0,Reward2,0,incongruent,114706,6,YA,7,1102,18,4,899,1,Reward4,0.04,incongruent,014707,6,YA,7,1102,19,3,946,0,Reward2,0,congruent,014708,6,YA,7,1102,20,3,489,1,Reward4,0.04,congruent,014709,6,YA,7,1102,21,4,1219,1,Reward1,0,congruent,114710,6,YA,7,1102,22,3,832,1,Reward1,0.01,congruent,014711,6,YA,7,1102,23,4,1622,1,Reward2,0,congruent,014712,6,YA,7,1102,24,3,740,1,Reward4,0.04,incongruent,114713,6,YA,7,1102,25,3,720,0,Reward4,0,congruent,114714,6,YA,7,1102,26,4,724,0,Reward2,0,congruent,014715,6,YA,7,1102,27,3,589,1,Reward1,0.01,congruent,114716,6,YA,7,1102,28,4,795,1,Reward2,0.02,incongruent,114717,6,YA,7,1102,29,4,526,1,Reward2,0.02,incongruent,014718,6,YA,7,1102,30,4,678,1,Reward1,0.01,incongruent,014719,6,YA,7,1102,31,3,617,1,Reward2,0.02,congruent,114720,6,YA,7,1102,32,3,509,1,Reward1,0.01,incongruent,114721,6,YA,7,1102,33,3,565,1,Reward4,0.04,congruent,014722,6,YA,7,1102,34,4,442,1,Reward2,0.02,congruent,114723,6,YA,7,1102,35,3,530,0,Reward4,0,incongruent,114724,6,YA,7,1102,36,3,691,1,Reward4,0.04,congruent,114725,6,YA,7,1102,37,3,1106,1,Reward4,0,incongruent,114726,6,YA,7,1102,38,3,504,1,Reward2,0.02,incongruent,014727,6,YA,7,1102,39,4,746,0,Reward1,0,incongruent,014728,6,YA,7,1102,40,3,363,1,Reward4,0.04,incongruent,014729,6,YA,7,1102,41,3,656,0,Reward4,0,congruent,114730,6,YA,7,1102,42,4,426,1,Reward1,0.01,congruent,114731,6,YA,7,1102,43,3,827,0,Reward1,0,congruent,014732,6,YA,7,1102,44,3,696,0,Reward1,0,incongruent,114733,6,YA,7,1102,45,4,746,0,Reward2,0,incongruent,014734,6,YA,7,1102,46,3,553,0,Reward4,0,congruent,014735,6,YA,7,1102,47,3,549,1,Reward4,0.04,incongruent,014736,6,YA,7,1102,48,4,528,1,Reward1,0.01,incongruent,114737,6,YA,7,1102,49,4,601,1,Reward4,0.04,congruent,014738,6,YA,7,1102,50,3,900,1,Reward4,0.04,incongruent,114739,6,YA,7,1102,51,3,718,1,Reward2,0.02,incongruent,114740,6,YA,7,1102,52,3,469,1,Reward2,0.02,incongruent,014741,6,YA,7,1102,53,3,555,0,Reward1,0,incongruent,114742,6,YA,7,1102,54,4,558,1,Reward4,0.04,incongruent,114743,6,YA,7,1102,55,3,628,1,Reward2,0.02,congruent,114744,6,YA,7,1102,56,3,521,1,Reward4,0.04,congruent,114745,6,YA,7,1102,57,4,495,1,Reward1,0.01,congruent,014746,6,YA,7,1102,58,3,542,0,Reward4,0,incongruent,114747,6,YA,7,1102,59,3,501,1,Reward2,0.02,congruent,114748,6,YA,7,1102,60,4,693,0,Reward2,0,incongruent,114749,6,YA,7,1102,61,4,570,1,Reward2,0.02,incongruent,114750,6,YA,7,1102,62,3,599,1,Reward2,0.02,congruent,014751,6,YA,7,1102,63,4,409,1,Reward1,0.01,incongruent,014752,6,YA,7,1102,64,3,342,1,Reward1,0.01,incongruent,114753,6,YA,7,1102,65,3,396,1,Reward4,0.04,incongruent,114754,6,YA,7,1102,66,4,511,0,Reward1,0,incongruent,114755,6,YA,7,1102,67,3,588,1,Reward1,0.01,congruent,014756,6,YA,7,1102,68,3,510,0,Reward2,0,congruent,114757,6,YA,7,1102,69,3,555,0,Reward1,0,congruent,114758,6,YA,7,1102,70,4,594,1,Reward1,0.01,congruent,014759,6,YA,7,1102,71,3,526,0,Reward2,0,congruent,014760,6,YA,7,1102,72,3,594,1,Reward4,0.04,congruent,114761,6,YA,7,1102,73,3,471,1,Reward4,0.04,congruent,114762,6,YA,7,1102,74,4,644,1,Reward4,0.04,congruent,114763,6,YA,7,1102,75,4,751,1,Reward1,0.01,congruent,114764,6,YA,7,1102,76,3,636,0,Reward4,0,incongruent,014765,6,YA,7,1102,77,3,491,1,Reward2,0.02,congruent,114766,6,YA,7,1102,78,4,660,1,Reward4,0.04,congruent,014767,6,YA,7,1102,79,3,478,1,Reward1,0.01,incongruent,014768,6,YA,7,1102,80,3,706,0,Reward4,0,incongruent,114769,6,YA,7,1102,81,3,383,1,Reward2,0.02,congruent,014770,6,YA,7,1102,82,3,515,1,Reward1,0.01,congruent,014771,6,YA,7,1102,83,3,471,0,Reward1,0,incongruent,014772,6,YA,7,1102,84,3,513,1,Reward4,0.04,incongruent,014773,6,YA,7,1102,85,4,674,0,Reward1,0,incongruent,014774,6,YA,7,1102,86,3,321,1,Reward1,0.01,incongruent,114775,6,YA,7,1102,87,3,579,0,Reward4,0,congruent,114776,6,YA,7,1102,88,3,453,0,Reward1,0,incongruent,014777,6,YA,7,1102,89,3,901,1,Reward1,0.01,congruent,114778,6,YA,7,1102,90,4,572,0,Reward2,0,incongruent,114779,6,YA,7,1102,91,3,632,0,Reward1,0,congruent,014780,6,YA,7,1102,92,4,463,0,Reward2,0,incongruent,014781,6,YA,7,1102,93,4,441,1,Reward1,0.01,incongruent,114782,6,YA,7,1102,94,4,590,1,Reward4,0.04,incongruent,014783,6,YA,7,1102,95,4,687,1,Reward2,0.02,incongruent,114784,6,YA,7,1102,96,3,648,0,Reward4,0,congruent,014785,6,YA,8,1102,1,3,807,1,Reward2,0.02,incongruent,014786,6,YA,8,1102,2,4,507,1,Reward1,0.01,congruent,014787,6,YA,8,1102,3,3,562,0,Reward1,0,incongruent,114788,6,YA,8,1102,4,4,518,1,Reward4,0.04,congruent,014789,6,YA,8,1102,5,3,522,0,Reward2,0,congruent,114790,6,YA,8,1102,6,3,598,0,Reward4,0,incongruent,114791,6,YA,8,1102,7,3,674,1,Reward1,0.01,incongruent,114792,6,YA,8,1102,8,4,749,1,Reward4,0.04,incongruent,114793,6,YA,8,1102,9,4,545,1,Reward1,0.01,incongruent,114794,6,YA,8,1102,10,4,648,0,Reward2,0,incongruent,114795,6,YA,8,1102,11,3,613,0,Reward4,0,congruent,114796,6,YA,8,1102,12,3,361,1,Reward4,0.04,incongruent,014797,6,YA,8,1102,13,4,533,1,Reward2,0.02,incongruent,014798,6,YA,8,1102,14,4,770,1,Reward4,0.04,incongruent,014799,6,YA,8,1102,15,4,465,1,Reward1,0.01,incongruent,014800,6,YA,8,1102,16,3,549,1,Reward2,0.02,congruent,014801,6,YA,8,1102,17,3,423,0,Reward4,0,congruent,114802,6,YA,8,1102,18,3,619,1,Reward2,0.02,congruent,114803,6,YA,8,1102,19,4,478,1,Reward1,0.01,congruent,114804,6,YA,8,1102,20,3,651,0,Reward4,0,congruent,014805,6,YA,8,1102,21,3,426,0,Reward1,0,congruent,014806,6,YA,8,1102,22,3,486,1,Reward4,0.04,congruent,114807,6,YA,8,1102,23,3,507,1,Reward4,0.04,congruent,014808,6,YA,8,1102,24,4,624,1,Reward2,0.02,congruent,114809,6,YA,8,1102,25,4,1028,0,Reward4,0,congruent,014810,6,YA,8,1102,26,3,411,1,Reward2,0.02,congruent,114811,6,YA,8,1102,27,3,584,1,Reward1,0.01,incongruent,014812,6,YA,8,1102,28,3,420,1,Reward2,0.02,congruent,014813,6,YA,8,1102,29,4,430,1,Reward2,0.02,congruent,014814,6,YA,8,1102,30,3,606,0,Reward2,0,incongruent,114815,6,YA,8,1102,31,4,635,1,Reward4,0.04,incongruent,114816,6,YA,8,1102,32,4,501,0,Reward4,0,incongruent,114817,6,YA,8,1102,33,4,386,1,Reward2,0.02,incongruent,114818,6,YA,8,1102,34,4,609,0,Reward1,0,congruent,114819,6,YA,8,1102,35,4,918,0,Reward4,0,incongruent,014820,6,YA,8,1102,36,4,963,1,Reward1,0.01,congruent,114821,6,YA,8,1102,37,4,435,1,Reward4,0.04,congruent,014822,6,YA,8,1102,38,3,593,0,Reward1,0,incongruent,114823,6,YA,8,1102,39,3,531,0,Reward2,0,incongruent,014824,6,YA,8,1102,40,4,611,1,Reward4,0.04,incongruent,014825,6,YA,8,1102,41,3,689,0,Reward2,0,congruent,014826,6,YA,8,1102,42,3,502,1,Reward1,0.01,congruent,114827,6,YA,8,1102,43,3,591,0,Reward2,0,incongruent,114828,6,YA,8,1102,44,4,528,1,Reward4,0.04,incongruent,114829,6,YA,8,1102,45,3,476,1,Reward2,0.02,congruent,114830,6,YA,8,1102,46,3,465,0,Reward1,0,congruent,114831,6,YA,8,1102,47,4,352,1,Reward2,0.02,incongruent,014832,6,YA,8,1102,48,4,343,1,Reward1,0.01,congruent,014833,6,YA,8,1102,49,4,353,1,Reward4,0.04,incongruent,014834,6,YA,8,1102,50,4,426,1,Reward4,0.04,congruent,014835,6,YA,8,1102,51,3,604,1,Reward1,0.01,congruent,114836,6,YA,8,1102,52,3,667,1,Reward1,0.01,incongruent,014837,6,YA,8,1102,53,3,588,1,Reward2,0.02,congruent,014838,6,YA,8,1102,54,3,662,1,Reward1,0.01,incongruent,014839,6,YA,8,1102,55,3,535,0,Reward2,0,incongruent,014840,6,YA,8,1102,56,4,650,0,Reward2,0,incongruent,114841,6,YA,8,1102,57,3,465,1,Reward1,0.01,incongruent,014842,6,YA,8,1102,58,3,702,1,Reward2,0.02,incongruent,014843,6,YA,8,1102,59,3,587,0,Reward4,0,congruent,114844,6,YA,8,1102,60,4,757,0,Reward1,0,congruent,014845,6,YA,8,1102,61,4,500,1,Reward2,0.02,incongruent,114846,6,YA,8,1102,62,3,673,1,Reward2,0.02,incongruent,114847,6,YA,8,1102,63,4,505,0,Reward2,0,incongruent,014848,6,YA,8,1102,64,3,825,1,Reward4,0.04,incongruent,014849,6,YA,8,1102,65,4,592,1,Reward4,0.04,incongruent,114850,6,YA,8,1102,66,3,538,1,Reward4,0.04,incongruent,014851,6,YA,8,1102,67,4,337,0,Reward1,0,incongruent,114852,6,YA,8,1102,68,3,706,1,Reward2,0.02,incongruent,014853,6,YA,8,1102,69,4,394,0,Reward1,0,congruent,114854,6,YA,8,1102,70,4,762,0,Reward2,0,congruent,114855,6,YA,8,1102,71,3,412,1,Reward4,0.04,congruent,114856,6,YA,8,1102,72,4,581,0,Reward4,0,incongruent,114857,6,YA,8,1102,73,4,382,1,Reward4,0.04,incongruent,014858,6,YA,8,1102,74,4,509,1,Reward2,0.02,congruent,114859,6,YA,8,1102,75,3,775,1,Reward4,0.04,congruent,114860,6,YA,8,1102,76,3,668,1,Reward2,0.02,incongruent,114861,6,YA,8,1102,77,3,336,1,Reward4,0.04,congruent,014862,6,YA,8,1102,78,3,599,1,Reward4,0.04,congruent,114863,6,YA,8,1102,79,3,519,1,Reward4,0.04,incongruent,114864,6,YA,8,1102,80,4,488,1,Reward1,0.01,congruent,114865,6,YA,8,1102,81,4,609,1,Reward4,0.04,congruent,114866,6,YA,8,1102,82,3,509,1,Reward1,0.01,congruent,014867,6,YA,8,1102,83,3,376,1,Reward1,0.01,congruent,014868,6,YA,8,1102,84,4,388,1,Reward2,0.02,congruent,014869,6,YA,8,1102,85,4,455,1,Reward1,0.01,incongruent,014870,6,YA,8,1102,86,3,640,1,Reward1,0.01,incongruent,114871,6,YA,8,1102,87,4,416,1,Reward1,0.01,incongruent,114872,6,YA,8,1102,88,4,520,1,Reward2,0.02,congruent,114873,6,YA,8,1102,89,3,438,1,Reward1,0.01,congruent,014874,6,YA,8,1102,90,3,464,0,Reward1,0,incongruent,014875,6,YA,8,1102,91,4,265,0,Reward2,0,congruent,014876,6,YA,8,1102,92,4,675,1,Reward1,0.01,congruent,014877,6,YA,8,1102,93,4,640,1,Reward1,0.01,incongruent,014878,6,YA,8,1102,94,3,583,1,Reward4,0.04,congruent,014879,6,YA,8,1102,95,3,499,0,Reward2,0,congruent,014880,6,YA,8,1102,96,3,423,1,Reward1,0.01,incongruent,114881,6,YA,9,1102,1,3,778,1,Reward1,0.01,incongruent,014882,6,YA,9,1102,2,3,476,1,Reward1,0.01,incongruent,114883,6,YA,9,1102,3,4,452,0,Reward1,0,congruent,114884,6,YA,9,1102,4,3,504,1,Reward1,0.01,congruent,114885,6,YA,9,1102,5,3,541,1,Reward2,0.02,incongruent,014886,6,YA,9,1102,6,3,477,1,Reward1,0.01,congruent,014887,6,YA,9,1102,7,4,375,1,Reward2,0.02,incongruent,014888,6,YA,9,1102,8,3,451,1,Reward4,0.04,congruent,114889,6,YA,9,1102,9,4,514,1,Reward2,0.02,incongruent,114890,6,YA,9,1102,10,4,395,1,Reward2,0.02,incongruent,014891,6,YA,9,1102,11,3,455,1,Reward1,0.01,congruent,014892,6,YA,9,1102,12,4,708,1,Reward2,0.02,incongruent,114893,6,YA,9,1102,13,4,568,0,Reward4,0,congruent,014894,6,YA,9,1102,14,3,378,1,Reward2,0.02,congruent,114895,6,YA,9,1102,15,4,568,0,Reward1,0,incongruent,114896,6,YA,9,1102,16,4,659,1,Reward1,0.01,incongruent,014897,6,YA,9,1102,17,4,588,1,Reward4,0.04,congruent,014898,6,YA,9,1102,18,3,793,0,Reward2,0,incongruent,114899,6,YA,9,1102,19,3,693,0,Reward4,0,congruent,114900,6,YA,9,1102,20,3,504,1,Reward1,0.01,congruent,114901,6,YA,9,1102,21,3,733,1,Reward2,0.02,congruent,114902,6,YA,9,1102,22,4,622,1,Reward4,0.04,incongruent,014903,6,YA,9,1102,23,3,450,0,Reward2,0,congruent,114904,6,YA,9,1102,24,3,468,1,Reward2,0.02,incongruent,014905,6,YA,9,1102,25,4,465,1,Reward1,0.01,incongruent,014906,6,YA,9,1102,26,3,790,0,Reward1,0,incongruent,114907,6,YA,9,1102,27,4,575,1,Reward4,0.04,incongruent,114908,6,YA,9,1102,28,4,503,1,Reward4,0.04,congruent,114909,6,YA,9,1102,29,3,688,1,Reward2,0.02,congruent,114910,6,YA,9,1102,30,3,674,1,Reward4,0.04,incongruent,014911,6,YA,9,1102,31,3,700,1,Reward2,0.02,incongruent,114912,6,YA,9,1102,32,4,598,1,Reward2,0.02,incongruent,014913,6,YA,9,1102,33,3,651,1,Reward4,0.04,congruent,114914,6,YA,9,1102,34,4,556,1,Reward4,0.04,incongruent,114915,6,YA,9,1102,35,4,798,1,Reward4,0.04,congruent,114916,6,YA,9,1102,36,3,735,0,Reward2,0,congruent,114917,6,YA,9,1102,37,3,460,1,Reward4,0.04,incongruent,114918,6,YA,9,1102,38,4,571,1,Reward4,0.04,incongruent,014919,6,YA,9,1102,39,4,510,1,Reward4,0.04,incongruent,114920,6,YA,9,1102,40,3,773,1,Reward4,0.04,incongruent,014921,6,YA,9,1102,41,4,536,1,Reward2,0.02,congruent,014922,6,YA,9,1102,42,3,667,0,Reward1,0,congruent,114923,6,YA,9,1102,43,4,406,1,Reward4,0.04,congruent,014924,6,YA,9,1102,44,4,558,1,Reward2,0.02,congruent,014925,6,YA,9,1102,45,3,493,0,Reward1,0,incongruent,114926,6,YA,9,1102,46,3,460,1,Reward1,0.01,incongruent,014927,6,YA,9,1102,47,4,377,1,Reward2,0.02,congruent,114928,6,YA,9,1102,48,3,514,1,Reward1,0.01,incongruent,014929,6,YA,9,1102,49,3,698,0,Reward2,0,incongruent,114930,6,YA,9,1102,50,4,596,1,Reward1,0.01,congruent,014931,6,YA,9,1102,51,4,360,1,Reward4,0.04,congruent,114932,6,YA,9,1102,52,4,385,1,Reward4,0.04,incongruent,014933,6,YA,9,1102,53,3,770,1,Reward2,0.02,incongruent,114934,6,YA,9,1102,54,3,513,1,Reward1,0.01,incongruent,114935,6,YA,9,1102,55,3,677,1,Reward1,0.01,congruent,114936,6,YA,9,1102,56,3,821,1,Reward1,0.01,congruent,014937,6,YA,9,1102,57,3,480,0,Reward4,0,congruent,014938,6,YA,9,1102,58,4,399,1,Reward1,0.01,incongruent,114939,6,YA,9,1102,59,3,987,1,Reward2,0.02,congruent,114940,6,YA,9,1102,60,3,487,1,Reward2,0.02,incongruent,014941,6,YA,9,1102,61,3,506,1,Reward4,0.04,congruent,114942,6,YA,9,1102,62,3,485,1,Reward4,0.04,congruent,014943,6,YA,9,1102,63,4,832,1,Reward1,0.01,congruent,114944,6,YA,9,1102,64,3,796,1,Reward2,0.02,congruent,014945,6,YA,9,1102,65,3,710,1,Reward2,0.02,congruent,014946,6,YA,9,1102,66,4,395,1,Reward1,0.01,congruent,114947,6,YA,9,1102,67,3,519,0,Reward1,0,incongruent,014948,6,YA,9,1102,68,4,401,1,Reward2,0.02,congruent,014949,6,YA,9,1102,69,3,536,0,Reward2,0,congruent,114950,6,YA,9,1102,70,4,731,1,Reward2,0.02,congruent,014951,6,YA,9,1102,71,3,523,0,Reward4,0,incongruent,014952,6,YA,9,1102,72,3,461,1,Reward2,0.02,incongruent,114953,6,YA,9,1102,73,3,830,1,Reward4,0.04,incongruent,114954,6,YA,9,1102,74,3,463,1,Reward2,0.02,incongruent,114955,6,YA,9,1102,75,3,507,1,Reward4,0.04,incongruent,114956,6,YA,9,1102,76,4,544,0,Reward1,0,congruent,014957,6,YA,9,1102,77,3,872,0,Reward2,0,incongruent,014958,6,YA,9,1102,78,3,527,1,Reward4,0.04,incongruent,014959,6,YA,9,1102,79,4,568,1,Reward1,0.01,incongruent,114960,6,YA,9,1102,80,3,1210,1,Reward4,0,incongruent,014961,6,YA,9,1102,81,4,657,1,Reward1,0.01,congruent,014962,6,YA,9,1102,82,4,456,1,Reward4,0.04,congruent,014963,6,YA,9,1102,83,3,333,1,Reward4,0.04,congruent,014964,6,YA,9,1102,84,4,403,0,Reward2,0,congruent,014965,6,YA,9,1102,85,3,505,1,Reward1,0.01,incongruent,114966,6,YA,9,1102,86,4,458,1,Reward4,0.04,incongruent,114967,6,YA,9,1102,87,4,500,1,Reward1,0.01,congruent,114968,6,YA,9,1102,88,3,671,1,Reward4,0.04,congruent,014969,6,YA,9,1102,89,3,624,1,Reward2,0.02,incongruent,014970,6,YA,9,1102,90,3,580,0,Reward1,0,incongruent,014971,6,YA,9,1102,91,3,1044,1,Reward4,0.04,incongruent,114972,6,YA,9,1102,92,3,615,1,Reward2,0.02,congruent,014973,6,YA,9,1102,93,3,480,1,Reward1,0.01,incongruent,014974,6,YA,9,1102,94,4,772,1,Reward1,0.01,congruent,014975,6,YA,9,1102,95,3,783,1,Reward4,0.04,congruent,114976,6,YA,9,1102,96,3,593,0,Reward1,0,congruent,015265,7,YA,7,689,1,3,758,1,Reward2,0,incongruent,015266,7,YA,7,689,2,4,701,1,Reward2,0,congruent,015267,7,YA,7,689,3,3,752,1,Reward2,0,incongruent,115268,7,YA,7,689,4,3,506,1,Reward2,0.02,congruent,015269,7,YA,7,689,5,4,587,1,Reward4,0.04,congruent,015270,7,YA,7,689,6,3,576,0,Reward2,0,incongruent,115271,7,YA,7,689,7,3,611,1,Reward4,0.04,incongruent,015272,7,YA,7,689,8,3,648,1,Reward1,0.01,congruent,015273,7,YA,7,689,9,3,963,0,Reward2,0,congruent,015274,7,YA,7,689,10,3,556,0,Reward1,0,incongruent,115275,7,YA,7,689,11,3,423,1,Reward1,0.01,incongruent,115276,7,YA,7,689,12,4,825,1,Reward2,0,congruent,115277,7,YA,7,689,13,4,470,1,Reward1,0.01,incongruent,015278,7,YA,7,689,14,4,500,1,Reward4,0.04,incongruent,015279,7,YA,7,689,15,4,641,0,Reward2,0,incongruent,015280,7,YA,7,689,16,3,582,1,Reward4,0.04,congruent,015281,7,YA,7,689,17,4,573,1,Reward2,0.02,congruent,115282,7,YA,7,689,18,4,508,1,Reward4,0.04,congruent,015283,7,YA,7,689,19,3,488,0,Reward2,0,incongruent,015284,7,YA,7,689,20,4,656,0,Reward4,0,incongruent,015285,7,YA,7,689,21,3,547,1,Reward1,0.01,incongruent,115286,7,YA,7,689,22,4,563,1,Reward1,0.01,incongruent,015287,7,YA,7,689,23,3,569,1,Reward2,0.02,incongruent,015288,7,YA,7,689,24,3,652,1,Reward4,0.04,congruent,115289,7,YA,7,689,25,3,705,1,Reward4,0,incongruent,115290,7,YA,7,689,26,4,678,1,Reward2,0.02,incongruent,015291,7,YA,7,689,27,3,639,1,Reward1,0.01,incongruent,115292,7,YA,7,689,28,3,671,1,Reward2,0.02,congruent,115293,7,YA,7,689,29,3,521,1,Reward2,0.02,congruent,015294,7,YA,7,689,30,3,661,1,Reward1,0.01,congruent,015295,7,YA,7,689,31,3,779,1,Reward2,0,incongruent,115296,7,YA,7,689,32,4,776,1,Reward1,0,congruent,115297,7,YA,7,689,33,4,553,1,Reward4,0.04,incongruent,015298,7,YA,7,689,34,3,531,0,Reward2,0,incongruent,115299,7,YA,7,689,35,4,791,0,Reward4,0,congruent,115300,7,YA,7,689,36,3,583,1,Reward4,0.04,incongruent,115301,7,YA,7,689,37,4,511,1,Reward4,0.04,congruent,115302,7,YA,7,689,38,4,572,1,Reward2,0.02,congruent,015303,7,YA,7,689,39,4,500,1,Reward1,0.01,congruent,015304,7,YA,7,689,40,4,524,1,Reward4,0.04,congruent,015305,7,YA,7,689,41,4,533,1,Reward4,0.04,incongruent,115306,7,YA,7,689,42,4,717,0,Reward1,0,incongruent,115307,7,YA,7,689,43,3,666,1,Reward1,0.01,incongruent,015308,7,YA,7,689,44,4,458,1,Reward1,0.01,congruent,115309,7,YA,7,689,45,3,531,1,Reward2,0.02,congruent,015310,7,YA,7,689,46,4,653,1,Reward4,0.04,incongruent,015311,7,YA,7,689,47,3,557,1,Reward4,0.04,congruent,015312,7,YA,7,689,48,3,749,1,Reward1,0,congruent,115313,7,YA,7,689,49,3,494,1,Reward4,0.04,incongruent,015314,7,YA,7,689,50,3,457,1,Reward4,0.04,congruent,115315,7,YA,7,689,51,4,789,1,Reward2,0,congruent,115316,7,YA,7,689,52,4,503,1,Reward2,0.02,congruent,015317,7,YA,7,689,53,4,619,1,Reward1,0.01,congruent,115318,7,YA,7,689,54,3,539,1,Reward4,0.04,congruent,115319,7,YA,7,689,55,3,509,1,Reward2,0.02,incongruent,115320,7,YA,7,689,56,4,662,1,Reward4,0.04,incongruent,115321,7,YA,7,689,57,3,587,1,Reward1,0.01,incongruent,015322,7,YA,7,689,58,4,650,1,Reward4,0.04,congruent,115323,7,YA,7,689,59,4,637,1,Reward2,0.02,incongruent,115324,7,YA,7,689,60,3,460,1,Reward2,0.02,congruent,115325,7,YA,7,689,61,3,510,1,Reward2,0.02,congruent,115326,7,YA,7,689,62,4,380,1,Reward2,0.02,incongruent,015327,7,YA,7,689,63,3,459,1,Reward1,0.01,congruent,015328,7,YA,7,689,64,3,404,1,Reward1,0.01,congruent,115329,7,YA,7,689,65,4,447,1,Reward4,0.04,congruent,115330,7,YA,7,689,66,4,527,0,Reward1,0,congruent,115331,7,YA,7,689,67,3,454,1,Reward1,0.01,incongruent,015332,7,YA,7,689,68,4,550,0,Reward2,0,incongruent,115333,7,YA,7,689,69,4,736,1,Reward1,0,incongruent,115334,7,YA,7,689,70,4,557,1,Reward1,0.01,incongruent,015335,7,YA,7,689,71,3,685,1,Reward2,0.02,incongruent,015336,7,YA,7,689,72,4,409,1,Reward4,0.04,incongruent,115337,7,YA,7,689,73,3,614,1,Reward4,0.04,incongruent,115338,7,YA,7,689,74,3,616,1,Reward4,0.04,incongruent,115339,7,YA,7,689,75,4,463,1,Reward1,0.01,incongruent,115340,7,YA,7,689,76,4,689,1,Reward4,0,congruent,015341,7,YA,7,689,77,4,487,1,Reward2,0.02,incongruent,115342,7,YA,7,689,78,3,671,1,Reward4,0.04,incongruent,015343,7,YA,7,689,79,4,609,1,Reward1,0.01,congruent,015344,7,YA,7,689,80,4,465,1,Reward4,0.04,congruent,115345,7,YA,7,689,81,3,360,1,Reward2,0.02,incongruent,015346,7,YA,7,689,82,4,771,0,Reward1,0,incongruent,015347,7,YA,7,689,83,4,444,1,Reward1,0.01,congruent,015348,7,YA,7,689,84,4,636,0,Reward4,0,congruent,015349,7,YA,7,689,85,3,647,1,Reward1,0.01,congruent,015350,7,YA,7,689,86,4,442,1,Reward1,0.01,congruent,115351,7,YA,7,689,87,3,599,0,Reward4,0,incongruent,115352,7,YA,7,689,88,4,475,1,Reward1,0.01,congruent,015353,7,YA,7,689,89,4,570,1,Reward1,0.01,incongruent,115354,7,YA,7,689,90,3,392,1,Reward2,0.02,congruent,115355,7,YA,7,689,91,4,470,1,Reward1,0.01,incongruent,015356,7,YA,7,689,92,3,643,1,Reward2,0.02,congruent,015357,7,YA,7,689,93,3,644,1,Reward1,0.01,congruent,115358,7,YA,7,689,94,3,580,1,Reward4,0.04,congruent,015359,7,YA,7,689,95,4,573,1,Reward2,0.02,congruent,115360,7,YA,7,689,96,4,633,1,Reward4,0.04,incongruent,015361,7,YA,8,689,1,4,493,1,Reward2,0.02,congruent,015362,7,YA,8,689,2,3,565,1,Reward1,0.01,incongruent,015363,7,YA,8,689,3,3,575,0,Reward1,0,congruent,115364,7,YA,8,689,4,3,494,0,Reward4,0,incongruent,015365,7,YA,8,689,5,3,661,1,Reward2,0.02,incongruent,115366,7,YA,8,689,6,4,623,1,Reward4,0.04,congruent,115367,7,YA,8,689,7,4,582,1,Reward1,0.01,congruent,115368,7,YA,8,689,8,4,519,1,Reward4,0.04,congruent,115369,7,YA,8,689,9,3,464,1,Reward1,0.01,congruent,115370,7,YA,8,689,10,3,524,1,Reward2,0.02,congruent,115371,7,YA,8,689,11,3,418,1,Reward4,0.04,incongruent,115372,7,YA,8,689,12,3,499,0,Reward4,0,congruent,015373,7,YA,8,689,13,3,582,1,Reward2,0.02,congruent,015374,7,YA,8,689,14,3,382,1,Reward4,0.04,congruent,015375,7,YA,8,689,15,3,392,1,Reward1,0.01,congruent,015376,7,YA,8,689,16,4,679,1,Reward2,0.02,incongruent,015377,7,YA,8,689,17,4,555,1,Reward4,0.04,incongruent,115378,7,YA,8,689,18,4,356,1,Reward2,0.02,incongruent,115379,7,YA,8,689,19,3,503,0,Reward1,0,incongruent,115380,7,YA,8,689,20,4,503,1,Reward4,0.04,incongruent,015381,7,YA,8,689,21,4,496,1,Reward1,0.01,incongruent,015382,7,YA,8,689,22,4,687,1,Reward4,0.04,incongruent,115383,7,YA,8,689,23,4,458,1,Reward4,0.04,incongruent,015384,7,YA,8,689,24,4,552,1,Reward2,0.02,incongruent,115385,7,YA,8,689,25,3,595,1,Reward4,0.04,incongruent,015386,7,YA,8,689,26,4,599,1,Reward2,0.02,incongruent,115387,7,YA,8,689,27,4,671,1,Reward1,0.01,congruent,015388,7,YA,8,689,28,4,436,1,Reward2,0.02,incongruent,015389,7,YA,8,689,29,3,563,1,Reward2,0.02,incongruent,015390,7,YA,8,689,30,3,642,0,Reward2,0,congruent,115391,7,YA,8,689,31,4,538,0,Reward4,0,congruent,115392,7,YA,8,689,32,3,446,1,Reward4,0.04,congruent,115393,7,YA,8,689,33,3,643,1,Reward2,0.02,congruent,115394,7,YA,8,689,34,3,564,1,Reward1,0.01,incongruent,115395,7,YA,8,689,35,4,548,0,Reward4,0,congruent,015396,7,YA,8,689,36,3,585,1,Reward1,0.01,incongruent,115397,7,YA,8,689,37,3,377,1,Reward4,0.04,incongruent,015398,7,YA,8,689,38,4,416,1,Reward1,0.01,congruent,115399,7,YA,8,689,39,4,408,1,Reward2,0.02,congruent,015400,7,YA,8,689,40,4,440,1,Reward4,0.04,congruent,015401,7,YA,8,689,41,4,503,1,Reward2,0.02,incongruent,015402,7,YA,8,689,42,4,746,1,Reward1,0,incongruent,115403,7,YA,8,689,43,4,506,1,Reward2,0.02,congruent,115404,7,YA,8,689,44,4,472,1,Reward4,0.04,congruent,115405,7,YA,8,689,45,3,430,1,Reward2,0.02,incongruent,115406,7,YA,8,689,46,3,481,1,Reward1,0.01,incongruent,115407,7,YA,8,689,47,3,439,1,Reward2,0.02,congruent,015408,7,YA,8,689,48,3,455,1,Reward1,0.01,incongruent,015409,7,YA,8,689,49,3,478,1,Reward4,0.04,congruent,015410,7,YA,8,689,50,3,695,1,Reward4,0,incongruent,015411,7,YA,8,689,51,3,558,1,Reward1,0.01,incongruent,115412,7,YA,8,689,52,3,443,1,Reward1,0.01,congruent,015413,7,YA,8,689,53,3,358,1,Reward2,0.02,incongruent,015414,7,YA,8,689,54,3,542,1,Reward1,0.01,congruent,015415,7,YA,8,689,55,4,450,1,Reward2,0.02,congruent,015416,7,YA,8,689,56,4,545,1,Reward2,0.02,congruent,115417,7,YA,8,689,57,4,469,1,Reward1,0.01,congruent,015418,7,YA,8,689,58,4,522,1,Reward2,0.02,congruent,015419,7,YA,8,689,59,4,567,1,Reward4,0.04,incongruent,115420,7,YA,8,689,60,3,347,1,Reward1,0.01,incongruent,015421,7,YA,8,689,61,4,439,0,Reward2,0,congruent,115422,7,YA,8,689,62,3,482,1,Reward2,0.02,congruent,115423,7,YA,8,689,63,3,509,1,Reward2,0.02,congruent,015424,7,YA,8,689,64,3,463,1,Reward4,0.04,congruent,015425,7,YA,8,689,65,3,575,1,Reward4,0.04,congruent,115426,7,YA,8,689,66,4,384,1,Reward4,0.04,congruent,015427,7,YA,8,689,67,4,458,0,Reward1,0,congruent,115428,7,YA,8,689,68,3,506,1,Reward2,0.02,congruent,015429,7,YA,8,689,69,3,525,0,Reward1,0,incongruent,115430,7,YA,8,689,70,3,461,1,Reward2,0.02,incongruent,115431,7,YA,8,689,71,4,468,1,Reward4,0.04,incongruent,115432,7,YA,8,689,72,3,344,1,Reward4,0.04,congruent,115433,7,YA,8,689,73,4,413,1,Reward4,0.04,congruent,015434,7,YA,8,689,74,3,599,1,Reward2,0.02,incongruent,115435,7,YA,8,689,75,3,554,1,Reward4,0.04,incongruent,115436,7,YA,8,689,76,4,360,1,Reward2,0.02,congruent,115437,7,YA,8,689,77,4,429,1,Reward4,0.04,incongruent,015438,7,YA,8,689,78,3,533,1,Reward4,0.04,incongruent,115439,7,YA,8,689,79,4,645,1,Reward4,0.04,congruent,115440,7,YA,8,689,80,3,454,0,Reward1,0,incongruent,115441,7,YA,8,689,81,3,554,1,Reward4,0.04,incongruent,115442,7,YA,8,689,82,4,517,1,Reward1,0.01,incongruent,015443,7,YA,8,689,83,4,427,1,Reward1,0.01,incongruent,015444,7,YA,8,689,84,3,385,1,Reward2,0.02,incongruent,0